Folder: ixdat-large-test-files/biologic_multiple_techniques_dataset

Note: README.md
# ixdat-large-test-files

This repository contains full data set test files too large for inclusion in the main repository

This repository will be interfaced from ixdat as a git submodule

**IMPORTANT:** The data files submitted to this repository are and will become public, so they should not include any data that the owner is not willing to part with.

File: multiple_techniques_dataset_01_01_PEIS_C01.mpt
EC-Lab ASCII FILE
Nb header lines : 62

Potentio Electrochemical Impedance Spectroscopy

Run on channel : 1 (SN 5836)
User :
Electrode connection : standard
Ewe ctrl range : min = -10.00 V, max = 10.00 V
Ewe,I filtering : <None>
Safety Limits :
	Do not start on E overload
Channel : Grounded
Acquisition started on : 05/05/2022 15:55:02
Saved on :
	File : multiple_techniques_dataset_01_01_PEIS_C01.mpr
	Directory : C:\Users\Spectro Inlets\Desktop\Zilien Data Dir\multiple_techniques_dataset\
	Host : 192.168.1.105
Device : SP-200 (SN 0763)
Address : USB
EC-Lab for windows v11.27 (software)
Internet server v11.25 (firmware)
Command interpretor v11.27 (firmware)
Electrode material :
Initial state :
Electrolyte :
Comments :
Cable : standard
Electrode surface area : 0.001 cm²
Characteristic mass : 0.001 g
Equivalent Weight : 0.000 g/eq.
Density : 0.000 g/cm3
Cycle Definition : Charge/Discharge alternance
Mode                Single sine
E (V)               1.0000
vs.                 Ref
tE (h:m:s)          0:00:0.0000
record              0
dI                  0.000
unit dI             mA
dt (s)              0.000
fi                  1.000
unit fi             MHz
ff                  10.000
unit ff             Hz
Nd                  6
Points              per decade
spacing             Logarithmic
Va (mV)             10.0
pw                  0.10
Na                  4
corr                0
E range min (V)     -10.000
E range max (V)     10.000
I Range             1 A
Bandwidth           8
nc cycles           0
goto Ns'            0
nr cycles           0
inc. cycle          0

freq/Hz	Re(Z)/Ohm	-Im(Z)/Ohm	|Z|/Ohm	Phase(Z)/deg	time/s	<Ewe>/V	<I>/mA	Cs/µF	Cp/µF	cycle number	I Range	|Ewe|/V	|I|/A	(Q-Qo)/mA.h	Re(Y)/Ohm-1	Im(Y)/Ohm-1	|Y|/Ohm-1	Phase(Y)/deg	<I>/mA	dq/mA.h
1.00002e+06	1091.75	981.998	1468.41	-41.9704	1.31147	1.00042	-0.0236899	0.000162069	7.24812e-05	1	37	0.00896515	6.10533e-06	-4.63994e-06	0.000506321	0.000455421	0.000681006	41.9704	0.000000000000000E+000	-4.63994e-06
681293	1458.24	1120.76	1839.17	-37.5448	1.97546	1.00042	-0.0250687	0.000208437	7.74021e-05	1	37	0.010338	5.62101e-06	-9.06262e-06	0.000431105	0.000331334	0.000543722	37.5448	-0.023979	-4.42268e-06
464157	2196.56	1050.04	2434.64	-25.5495	2.63848	1.0004	-0.0297453	0.000326551	6.07421e-05	1	37	0.0106103	4.35807e-06	-1.4498e-05	0.000370574	0.000177147	0.000410739	25.5495	-0.0295125	-5.43539e-06
316230	1458.22	-1811.29	2325.34	51.1633	3.30246	1.00041	-0.0310495	-0.000277862	-0.000168591	1	37	0.0104972	4.51428e-06	-2.03743e-05	0.000269683	-0.000334978	0.000430046	-51.1633	-0.0318603	-5.87631e-06
215447	1354.92	-407.888	1414.98	16.7541	3.96646	1.00042	-0.0319997	-0.00181109	-0.000150494	1	37	0.0103993	7.34942e-06	-2.67375e-05	0.000676724	-0.000203723	0.000706724	-16.7541	-0.0344989	-6.36315e-06
146777	730.327	-2320.4	2432.62	72.529	4.63048	1.00041	-0.0376638	-0.000467305	-0.000425185	1	37	0.0103837	4.26854e-06	-3.34599e-05	0.000123416	-0.000392116	0.00041108	-72.529	-0.0364463	-6.72246e-06
100004	861.673	-2098.06	2268.11	67.6721	5.29446	1.00042	-0.0471101	-0.000758552	-0.000649071	1	37	0.0101593	4.47918e-06	-4.18116e-05	0.000167499	-0.000407839	0.000440895	-67.6721	-0.0452817	-8.35167e-06
68132	1132.4	-1049.7	1544.08	42.8295	5.82847	1.00041	-0.0463462	-0.00222538	-0.00102847	1	37	0.0108443	7.02314e-06	-4.87588e-05	0.000474961	-0.000440273	0.000647633	-42.8295	-0.0468339	-6.94722e-06
46420.4	361.735	-818.611	894.973	66.1599	6.49247	1.00043	-0.0507806	-0.00418826	-0.00350404	1	37	0.0101059	1.12919e-05	-5.7877e-05	0.000451617	-0.00102202	0.00111735	-66.1599	-0.0494362	-9.1182e-06
31621.1	137.517	-623.118	638.112	77.5548	7.02647	1.00043	-0.0519544	-0.00807742	-0.00770228	1	37	0.0101988	1.59829e-05	-6.52743e-05	0.000337724	-0.0015303	0.00156712	-77.5548	-0.0498695	-7.39726e-06
21544.7	144.193	-564.074	582.212	75.6606	7.56047	1.0004	-0.0529977	-0.0130962	-0.0122929	1	37	0.0101749	1.74762e-05	-7.28647e-05	0.000425385	-0.00166408	0.00171759	-75.6606	-0.051171	-7.59042e-06
14678.6	60.6734	-394.238	398.879	81.2508	8.09447	1.00042	-0.0507619	-0.0275028	-0.0268665	1	37	0.00996331	2.49783e-05	-8.04102e-05	0.000381342	-0.00247785	0.00250702	-81.2508	-0.050869	-7.54552e-06
10002.2	46.1849	-256.454	260.579	79.791	8.62847	1.00043	-0.0525506	-0.0620461	-0.060097	1	37	0.00947685	3.63684e-05	-8.78761e-05	0.000680174	-0.00377685	0.0038376	-79.791	-0.0503311	-7.46587e-06
6963.31	31.8847	-183.327	186.079	80.1337	9.31592	1.00039	-0.0460481	-0.124674	-0.121014	1	37	0.0107563	5.78048e-05	-9.64754e-05	0.000920843	-0.00529457	0.00537405	-80.1337	-0.0450322	-8.59926e-06
4641.49	15.6374	-126.229	127.193	82.9381	10.2087	1.00042	-0.0474268	-0.271647	-0.267541	1	37	0.0108033	8.49356e-05	-0.00010808	0.000966574	-0.0078024	0.00786204	-82.9381	-0.0467938	-1.16044e-05
3163.04	13.9278	-82.6298	83.7954	80.4324	11.0996	1.0004	-0.0398437	-0.608946	-0.592123	1	37	0.0107787	0.000128631	-0.00011859	0.00198354	-0.0117678	0.0119338	-80.4324	-0.0424738	-1.05107e-05
2154.31	9.76773	-55.4361	56.29	80.0072	11.9908	1.0004	-0.0366763	-1.33266	-1.29253	1	37	0.0107089	0.000190244	-0.000127964	0.0030827	-0.0174956	0.0177651	-80.0072	-0.0378607	-9.37323e-06
1467.65	9.24356	-36.538	37.6891	75.8029	12.8821	1.00041	-0.0397505	-2.96792	-2.7894	1	37	0.0105021	0.000278652	-0.000138156	0.00650741	-0.0257225	0.0265329	-75.8029	-0.0411668	-1.01918e-05
999.682	8.91837	-22.5843	24.2814	68.4513	13.7728	1.00046	-0.0385954	-7.04939	-6.09841	1	37	0.0100883	0.000415472	-0.000147743	0.0151264	-0.0383052	0.0411837	-68.4513	-0.0387505	-9.5879e-06
681.09	9.01177	-12.3305	15.2726	53.8387	14.6634	1.00053	-0.036993	-18.9512	-12.3529	1	37	0.0095904	0.000627948	-0.000157319	0.0386353	-0.0528632	0.0654767	-53.8387	-0.0387044	-9.57511e-06
464.257	9.20182	-4.59394	10.2848	26.5303	15.5541	1.00039	-0.0491037	-74.6236	-14.8886	1	37	0.00992746	0.000965252	-0.000168289	0.086992	-0.0434301	0.0972306	-26.5303	-0.0443442	-1.09707e-05
316.316	8.48421	1.77286	8.66746	-11.8027	16.4409	1.00135	-0.0385767	283.808	11.8738	1	37	0.00969997	0.00111913	-0.000179118	0.112935	0.0235989	0.115374	11.8027	-0.0439557	-1.08288e-05
215.483	5.41654	8.85316	10.3787	-58.5409	19.0663	1.00074	-0.0381482	83.4275	60.7044	1	37	0.0108093	0.00104149	-0.000206125	0.0502847	0.0821888	0.0963512	58.5409	-0.0370337	-2.70073e-05
146.738	-2.12929	21.7141	21.8182	-95.6005	21.0224	1.00027	-0.0417814	49.9502	49.4745	1	37	0.00946379	0.000433757	-0.000227216	-0.00447298	0.0456145	0.0458333	95.6005	-0.0388143	-2.10903e-05
99.9682	-11.0964	44.9483	46.2977	-103.867	22.1308	1.00028	-0.0411293	35.4198	33.3851	1	37	0.00933129	0.00020155	-0.000240681	-0.00517684	0.0209698	0.0215993	103.867	-0.0437345	-1.34654e-05
68.1464	-18.2669	81.587	83.607	-102.62	23.2652	1.0003	-0.0444644	28.6257	27.2592	1	37	0.00983239	0.000117602	-0.000252916	-0.00261325	0.0116718	0.0119607	102.62	-0.038827	-1.22348e-05
46.4109	-15.8006	138.398	139.297	-96.5131	24.1306	1.00032	-0.0399555	24.7782	24.4594	1	37	0.00934374	6.70776e-05	-0.000262814	-0.000814303	0.00713255	0.00717888	96.5131	-0.041173	-9.89807e-06
31.6296	-26.8544	221.398	223.021	-96.9159	24.9804	1.0003	-0.0339933	22.7276	22.398	1	37	0.00915138	4.10338e-05	-0.00027149	-0.000539915	0.00445126	0.00448389	96.9159	-0.0367558	-8.67639e-06
21.5517	8.8343	298.467	298.597	-88.3046	25.8133	1.0003	-0.0356702	24.7425	24.7208	1	37	0.00908735	3.04335e-05	-0.000280457	9.90835e-05	0.00334752	0.00334899	88.3046	-0.0387573	-8.96697e-06
14.6759	12.107	446.31	446.474	-88.4461	26.7222	1.00028	-0.0340865	24.2984	24.2806	1	37	0.00903366	2.02333e-05	-0.000289921	6.07356e-05	0.00223895	0.00223977	88.4461	-0.0374849	-9.4632e-06
9.99682	-35.7036	490.432	491.73	-94.1638	27.6128	1.00032	-0.0368999	32.4623	32.2912	1	37	0.00910758	1.85215e-05	-0.000299612	-0.000147658	0.00202827	0.00203364	94.1638	-0.0391743	-9.69172e-06

File: multiple_techniques_dataset_01_02_CVA_C01.mpt
EC-Lab ASCII FILE
Nb header lines : 66

Cyclic Voltammetry Advanced

Run on channel : 1 (SN 5836)
User :
Electrode connection : standard
Ewe ctrl range : min = -10.00 V, max = 10.00 V
Ewe,I filtering : <None>
Safety Limits :
	Do not start on E overload
Channel : Grounded
Acquisition started on : 05/05/2022 15:55:02
Saved on :
	File : multiple_techniques_dataset_01_02_CVA_C01.mpr
	Directory : C:\Users\Spectro Inlets\Desktop\Zilien Data Dir\multiple_techniques_dataset\
	Host : 192.168.1.105
Device : SP-200 (SN 0763)
Address : USB
EC-Lab for windows v11.27 (software)
Internet server v11.25 (firmware)
Command interpretor v11.27 (firmware)
Electrode material :
Initial state :
Electrolyte :
Comments :
Cable : standard
Electrode surface area : 0.001 cm²
Characteristic mass : 0.001 g
Equivalent Weight : 0.000 g/eq.
Density : 0.000 g/cm3
Cycle Definition : Charge/Discharge alternance
Ns                  0                   1                   2
Ei (V)              0.000               0.000               0.000
vs.                 Eoc                 Eoc                 Eoc
ti (h:m:s)          0:00:10.0000        0:00:10.0000        0:00:5.0000
dti (s)             1.0000              1.0000              1.0000
dE/dt               20.000              200.000             50.000
dE/dt unit          mV/s                mV/s                mV/s
E1 (V)              1.700               1.700               1.700
vs.                 Ref                 Ref                 Ref
t1 (h:m:s)          0:00:0.0000         0:00:0.0000         0:00:0.0000
dt1 (s)             0.1000              0.1000              0.1000
Step percent        80                  80                  80
N                   20                  20                  40
E range min (V)     -10.000             -10.000             -10.000
E range max (V)     10.000              10.000              10.000
I Range             100 µA              100 µA              100 µA
I Range min         Unset               Unset               Unset
I Range max         Unset               Unset               Unset
I Range init        Unset               Unset               Unset
Bandwidth           1                   1                   1
E2 (V)              0.010               0.010               0.010
vs.                 Ref                 Ref                 Ref
t2 (h:m:s)          0:00:0.0000         0:00:0.0000         0:00:0.0000
dt2 (s)             0.1000              0.1000              0.1000
nc cycles           1                   1                   1
nr                  1                   1                   1
Reverse Scan        1                   1                   1
Ef (V)              0.900               0.900               0.900
vs.                 Ref                 Ref                 Ref
tf (h:m:s)          0:00:0.0000         0:00:0.0000         0:00:0.0000
dtf (s)             0.1000              0.1000              0.1000

mode	ox/red	error	control changes	Ns changes	counter inc.	time/s	control/V	Ewe/V	<I>/mA	cycle number	(Q-Qo)/C	I Range	Rcmp/Ohm	P/W
2	0	0	0	0	0	28.6816	0.917919	0.917703	-0.000437639	1	0.0000000E+000	41	0.0000000E+000	-4.01623e-07
2	1	0	0	0	0	43.2041	1.00804	1.00826	0.00155257	1	2.99561e-06	41	0.0000000E+000	1.5654e-06
2	1	0	0	0	0	51.2	1.16796	1.16825	0.00567378	1	3.33425e-05	41	0.0000000E+000	6.62837e-06
2	1	0	1	0	0	59.1959	1.32787	1.3281	0.00767567	1	8.92778e-05	41	0.0000000E+000	1.01941e-05
2	1	0	0	0	0	67.1917	1.48779	1.48802	0.00949932	1	0.000156184	41	0.0000000E+000	1.41352e-05
2	1	0	0	0	0	75.1876	1.64771	1.64791	0.0476842	1	0.000317125	41	0.0000000E+000	7.85793e-05
2	1	0	0	0	0	82.3168	1.60939	1.60964	0.00610246	1	0.000663494	41	0.0000000E+000	9.82274e-06
2	1	0	1	0	0	90.3126	1.44948	1.44958	0.000322994	1	0.000675892	41	0.0000000E+000	4.68207e-07
2	1	0	0	0	0	98.3085	1.28956	1.28962	-0.00017801	1	0.00067531	41	0.0000000E+000	-2.29566e-07
2	0	0	1	0	0	106.304	1.12964	1.12995	-0.000715395	1	0.000670968	41	0.0000000E+000	-8.08361e-07
2	0	0	1	0	0	114.3	0.969725	0.969905	-0.00196303	1	0.000660183	41	0.0000000E+000	-1.90396e-06
2	0	0	0	0	0	122.296	0.809809	0.809842	-0.00833195	1	0.000626916	41	0.0000000E+000	-6.74756e-06
2	0	0	1	0	0	130.292	0.649891	0.650097	-0.00624718	1	0.000499299	41	0.0000000E+000	-4.06127e-06
2	0	0	1	0	0	138.288	0.489973	0.490234	-0.00142368	1	0.000477764	41	0.0000000E+000	-6.97937e-07
2	0	0	0	0	0	146.284	0.330057	0.330292	-0.0021841	1	0.00046497	41	0.0000000E+000	-7.21392e-07
2	0	0	1	0	0	154.279	0.170139	0.170146	-0.00555885	1	0.00043114	41	0.0000000E+000	-9.45818e-07
2	0	0	0	0	0	162.192	0.0118894	0.0119654	-0.162365	1	0.000292373	41	0.0000000E+000	-1.94276e-06
2	0	0	0	0	1	169.466	0.153814	0.154126	0.00425128	1	0.000351444	41	0.0000000E+000	6.55232e-07
2	0	0	0	0	1	177.462	0.313732	0.313846	0.00272351	1	0.000379771	41	0.0000000E+000	8.54762e-07
2	1	0	1	0	1	185.458	0.47365	0.473826	0.000368934	1	0.000386478	41	0.0000000E+000	1.7481e-07
2	1	0	0	0	1	193.454	0.633566	0.633794	0.000860078	1	0.000391869	41	0.0000000E+000	5.45112e-07
2	1	0	0	0	1	201.45	0.793484	0.793751	0.00149555	1	0.000402754	41	0.0000000E+000	1.18709e-06
2	1	0	0	0	1	208.862	0.94174	0.94203	0.00433773	2	0.000425733	41	0.0000000E+000	4.08627e-06
2	1	0	1	0	1	216.858	1.10166	1.10192	0.00541253	2	0.000466014	41	0.0000000E+000	5.96415e-06
2	1	0	0	0	1	224.854	1.26157	1.26176	0.00648702	2	0.000514667	41	0.0000000E+000	8.18509e-06
2	1	0	0	0	1	232.85	1.42149	1.42173	0.00714494	2	0.00057021	41	0.0000000E+000	1.01582e-05
2	1	0	1	0	1	240.846	1.58141	1.58174	0.0164445	2	0.000647642	41	0.0000000E+000	2.60109e-05
2	1	0	1	0	1	247.958	1.67603	1.67648	0.0419167	2	0.00101817	41	0.0000000E+000	7.02727e-05
2	1	0	1	0	1	255.954	1.51611	1.51633	0.000751776	2	0.00108507	41	0.0000000E+000	1.13994e-06
2	1	0	0	0	1	263.95	1.35619	1.35662	-4.53169e-05	2	0.00108606	41	0.0000000E+000	-6.14776e-08
2	0	0	1	0	1	271.946	1.19628	1.19651	-0.000483122	2	0.00108306	41	0.0000000E+000	-5.7806e-07
2	0	0	1	0	1	279.942	1.03636	1.03653	-0.00128684	2	0.0010755	41	0.0000000E+000	-1.33385e-06
2	0	0	0	0	1	287.938	0.876441	0.876723	-0.00403179	2	0.00105598	41	0.0000000E+000	-3.53477e-06
2	0	0	1	0	1	295.933	0.716523	0.716731	-0.025006	2	0.000946694	41	0.0000000E+000	-1.79225e-05
2	0	0	1	0	1	303.929	0.556605	0.556888	-0.00167511	2	0.000888592	41	0.0000000E+000	-9.32848e-07
2	0	0	0	0	1	311.925	0.396689	0.396938	-0.00132317	2	0.000876768	41	0.0000000E+000	-5.25219e-07
2	1	0	1	0	1	319.921	0.236771	0.236967	-0.00466954	2	0.000852566	41	0.0000000E+000	-1.10653e-06
2	0	0	0	0	1	327.917	0.0768554	0.0770915	-0.00827019	2	0.000802888	41	0.0000000E+000	-6.37561e-07
2	1	0	0	0	0	335.108	0.0871821	0.0874042	0.00624982	2	0.000745024	41	0.0000000E+000	5.46261e-07
2	0	0	0	0	0	343.104	0.2471	0.247393	0.00337307	2	0.00078007	41	0.0000000E+000	8.34475e-07
2	0	0	1	0	0	351.099	0.407016	0.407283	0.000295049	2	0.000796889	41	0.0000000E+000	1.20168e-07
2	1	0	0	0	0	359.095	0.566934	0.567175	0.00049856	2	0.000800631	41	0.0000000E+000	2.82771e-07
2	1	0	0	0	0	367.091	0.726852	0.727035	0.00116216	2	0.000808252	41	0.0000000E+000	8.44931e-07
2	1	0	1	0	0	375.087	0.886768	0.886938	0.00365968	2	0.000824806	41	0.0000000E+000	3.24591e-06
2	1	0	0	0	0	386.06	0.981386	0.981701	0.0241695	3	0.000843339	41	0.0000000E+000	2.37273e-05
2	1	0	0	0	0	386.859	1.1413	1.1416	0.0411197	3	0.000872103	41	0.0000000E+000	4.69421e-05
[...]
2	1	0	0	0	1	406.124	1.61441	1.61476	0.105006	4	0.00108303	41	0.0000000E+000	0.00016956
2	1	0	1	0	1	407.006	1.60937	1.6096	0.0140505	4	0.00120601	41	0.0000000E+000	2.26156e-05
2	1	0	0	0	1	407.805	1.44948	1.44932	-0.00150958	4	0.0012079	41	0.0000000E+000	-2.18786e-06
2	0	0	0	0	1	408.605	1.28956	1.28967	-0.00408556	4	0.00120561	41	0.0000000E+000	-5.26901e-06
2	0	0	0	0	1	409.405	1.12964	1.12967	-0.00769483	4	0.00120106	41	0.0000000E+000	-8.69262e-06
2	0	0	0	0	1	410.204	0.96974	0.969675	-0.0170179	4	0.00119184	41	0.0000000E+000	-1.65018e-05
2	0	0	0	0	1	411.004	0.809814	0.810056	-0.0654404	4	0.00116559	41	0.0000000E+000	-5.30104e-05
2	0	0	0	0	1	411.937	0.623238	0.623237	-0.0593581	4	0.00102277	41	0.0000000E+000	-3.69942e-05
2	0	0	0	0	1	412.736	0.463321	0.463527	-0.0186137	4	0.000997845	41	0.0000000E+000	-8.62796e-06
2	0	0	0	0	1	413.536	0.303404	0.303446	-0.0376377	4	0.000980811	41	0.0000000E+000	-1.1421e-05
2	0	0	0	0	1	414.335	0.143497	0.14349	-0.0650337	4	0.000945408	41	0.0000000E+000	-9.33169e-06
2	1	0	1	0	0	415.191	0.0478698	0.048371	0.129234	4	0.000892791	41	0.0000000E+000	6.25117e-06
2	1	0	1	0	0	415.991	0.207787	0.207995	0.0389125	4	0.000941215	41	0.0000000E+000	8.09361e-06
2	1	0	1	0	0	416.79	0.367704	0.368053	0.0109547	4	0.000966297	41	0.0000000E+000	4.03191e-06
2	1	0	1	0	0	417.59	0.527621	0.527815	0.0051035	4	0.000970762	41	0.0000000E+000	2.6937e-06
2	1	0	1	0	0	418.39	0.68753	0.687811	0.00771694	4	0.00097572	41	0.0000000E+000	5.3078e-06
2	1	0	1	0	0	419.189	0.847449	0.84781	0.030799	4	0.000986695	41	0.0000000E+000	2.61117e-05
2	1	0	0	0	0	426.727	1.03136	1.03162	0.00963533	5	0.00102363	41	0.0000000E+000	9.94003e-06
2	1	0	0	0	0	433.124	1.3512	1.35145	0.0123514	5	0.00109593	41	0.0000000E+000	1.66924e-05
2	1	0	1	0	0	439.52	1.67102	1.67134	0.112065	5	0.00127298	41	0.0000000E+000	0.000187299
2	1	0	1	0	0	445.564	1.42649	1.42668	-7.5805e-05	5	0.00145173	41	0.0000000E+000	-1.08149e-07
2	0	0	0	0	0	451.961	1.10665	1.10678	-0.00193676	5	0.00144436	41	0.0000000E+000	-2.14356e-06
2	0	0	0	0	0	458.357	0.786819	0.787014	-0.0286484	5	0.00139357	41	0.0000000E+000	-2.25467e-05
2	0	0	1	0	0	464.754	0.466984	0.467115	-0.00307264	5	0.00124132	41	0.0000000E+000	-1.43528e-06
2	0	0	1	0	0	471.151	0.14715	0.147213	-0.0146242	5	0.00119466	41	0.0000000E+000	-2.15287e-06
2	1	0	1	0	1	476.973	0.164141	0.164425	0.0113967	5	0.00116309	41	0.0000000E+000	1.8739e-06
2	1	0	1	0	1	483.369	0.483976	0.484185	0.000805649	5	0.00119974	41	0.0000000E+000	3.90083e-07
2	0	0	0	0	1	489.766	0.803811	0.804117	0.00380954	5	0.00121216	41	0.0000000E+000	3.06331e-06
2	1	0	0	0	1	495.656	1.09833	1.09862	0.0107833	6	0.00126812	41	0.0000000E+000	1.18467e-05
2	1	0	1	0	1	502.053	1.41816	1.41835	0.0130568	6	0.00134688	41	0.0000000E+000	1.85191e-05
2	1	0	0	0	1	508.09	1.67969	1.67996	0.0759007	6	0.00164328	41	0.0000000E+000	0.00012751
2	1	0	1	0	1	514.486	1.35986	1.36004	-0.000402669	6	0.00168871	41	0.0000000E+000	-5.47648e-07
2	0	0	1	0	1	520.883	1.04002	1.04022	-0.00282732	6	0.00167837	41	0.0000000E+000	-2.94104e-06
2	0	0	0	0	1	527.28	0.720189	0.720411	-0.0692613	6	0.00155927	41	0.0000000E+000	-4.98966e-05
2	0	0	1	0	1	533.677	0.400354	0.400488	-0.00291432	6	0.00147444	41	0.0000000E+000	-1.16715e-06
2	0	0	1	0	1	540.073	0.0805195	0.0806106	-0.0173566	6	0.00140862	41	0.0000000E+000	-1.39912e-06
2	1	0	0	0	0	545.895	0.230776	0.231043	0.00971321	6	0.00141409	41	0.0000000E+000	2.24417e-06
2	1	0	1	0	0	552.292	0.550606	0.550636	0.000844022	6	0.00143881	41	0.0000000E+000	4.64749e-07
2	1	0	1	0	0	558.688	0.870446	0.870746	0.00908049	6	0.00145827	41	0.0000000E+000	7.90681e-06
2	1	0	0	0	0	559.276	0.899929	0.900809	0.0112674	6	0.0014639	41	0.0000000E+000	1.01498e-05