Folder: ixdat-large-test-files/dataset_with_loop

Note: README.md
# ixdat-large-test-files

This repository contains full data set test files too large for inclusion in the main repository

This repository will be interfaced from ixdat as a git submodule

**IMPORTANT:** The data files submitted to this repository are and will become public, so they should not include any data that the owner is not willing to part with.

File: dataset_with_loop_01_03_CP_DUSB0_C01.mpt
EC-Lab ASCII FILE
Nb header lines : 60

Chronopotentiometry

Run on channel : 1 (SN 5836)
User :
Electrode connection : standard
Ewe ctrl range : min = -5.00 V, max = 5.00 V
Ewe,I filtering : 50 kHz
Safety Limits :
	Do not start on E overload
Channel : Grounded
Acquisition started on : 06/24/2022 13:13:57
Technique started on : 06/24/2022 13:14:48
Saved on :
	File : 2022-06-24 13_13_40 5_EC_measurements_with_loop_01_03_CP_DUSB0_C01.mpr
	Directory : C:\Users\Spectro Inlets Lab_1\Dropbox (Spectro Inlets)\Development\Data\Kenneth reduced data\2022-06-24 13_13_40 5_EC_measurements_with_loop\
	Host : 192.168.50.150
Device : SP-200 (SN 0763)
Address : USB
EC-Lab for windows v11.27 (software)
Internet server v11.25 (firmware)
Command interpretor v11.27 (firmware)
Electrode material :
Initial state :
Electrolyte :
Comments :
Cable : standard
Electrode surface area : 0.001 cm²
Characteristic mass : 0.001 g
Equivalent Weight : 0.000 g/eq.
Density : 0.000 g/cm3
Record Ece
Text export
   Mode : Standard
   Time format : Elapsed
Cycle Definition : Charge/Discharge alternance
Is                  0.000
unit Is             µA
vs.                 <None>
ts (h:m:s)          0:00:10.0000
EM (V)              pass
dQM                 0.000
unit dQM            mA.h
record              Ewe
dEs (mV)            10.00
dts (s)             0.5000
E range min (V)     -5.000
E range max (V)     5.000
I Range             100 µA
Bandwidth           8
goto Ns'            0
nc cycles           0

Number of loops : 2
Loop 0 from point number 0 to 21
Loop 1 from point number 22 to 43

mode	ox/red	error	control changes	Ns changes	counter inc.	Ns	time/s	control/mA	Ewe/V	I/mA	dQ/C	(Q-Qo)/C	half cycle	Q charge/discharge/mA.h	I Range	Ece/V	Q discharge/mA.h	Q charge/mA.h	Capacity/mA.h	Efficiency/%	cycle number	P/W	Ewe-Ece/V
1	1	0	0	0	0	0	51.0968	0.0000000E+000	0.816255	2.73549e-05	0.0000000E+000	0.0000000E+000	0	0.000000000000000E+000	41	1.07589	0.000000000000000E+000	0.000000000000000E+000	0.000000000000000E+000	0.0000000E+000	0.000000000000000E+000	2.23286e-08	-0.259633
1	1	0	0	0	0	0	51.283	0.0000000E+000	0.826287	3.42259e-05	6.31766e-09	6.31766e-09	0	1.75491e-09	41	1.07441	0.000000000000000E+000	1.75491e-09	1.75491e-09	0.0000000E+000	0.000000000000000E+000	2.82804e-08	-0.248123
1	1	0	0	0	0	0	51.783	0.0000000E+000	0.829385	3.0474e-05	2.15737e-08	2.15737e-08	0	5.9927e-09	41	1.07393	0.000000000000000E+000	5.9927e-09	5.9927e-09	0.0000000E+000	0.000000000000000E+000	2.52747e-08	-0.244544
1	1	0	0	0	0	0	52.283	0.0000000E+000	0.830822	3.07489e-05	3.68296e-08	3.68296e-08	0	1.02304e-08	41	1.07362	0.000000000000000E+000	1.02304e-08	1.02304e-08	0.0000000E+000	0.000000000000000E+000	2.55468e-08	-0.242798
1	1	0	0	0	0	0	52.783	0.0000000E+000	0.831868	3.11764e-05	5.20329e-08	5.20329e-08	0	1.44536e-08	41	1.07324	0.000000000000000E+000	1.44536e-08	1.44536e-08	0.0000000E+000	0.000000000000000E+000	2.59347e-08	-0.241374
1	1	0	0	0	0	0	53.283	0.0000000E+000	0.832785	2.91838e-05	6.71265e-08	6.71265e-08	0	1.86463e-08	41	1.07273	0.000000000000000E+000	1.86463e-08	1.86463e-08	0.0000000E+000	0.000000000000000E+000	2.43038e-08	-0.239941
1	1	0	0	0	0	0	53.783	0.0000000E+000	0.833698	3.0745e-05	8.23572e-08	8.23572e-08	0	2.2877e-08	41	1.07245	0.000000000000000E+000	2.2877e-08	2.2877e-08	0.0000000E+000	0.000000000000000E+000	2.56321e-08	-0.238753
1	1	0	0	0	0	0	54.283	0.0000000E+000	0.834592	3.16955e-05	9.77839e-08	9.77839e-08	0	2.71622e-08	41	1.07201	0.000000000000000E+000	2.71622e-08	2.71622e-08	0.0000000E+000	0.000000000000000E+000	2.64528e-08	-0.237413
1	1	0	0	0	0	0	54.783	0.0000000E+000	0.835437	3.08557e-05	1.13241e-07	1.13241e-07	0	3.14558e-08	41	1.07166	0.000000000000000E+000	3.14558e-08	3.14558e-08	0.0000000E+000	0.000000000000000E+000	2.5778e-08	-0.236225
1	1	0	0	0	0	0	55.283	0.0000000E+000	0.83617	3.05771e-05	1.28748e-07	1.28748e-07	0	3.57634e-08	41	1.07128	0.000000000000000E+000	3.57634e-08	3.57634e-08	0.0000000E+000	0.000000000000000E+000	2.55676e-08	-0.235113
1	1	0	0	0	0	0	55.783	0.0000000E+000	0.837015	3.0955e-05	1.44208e-07	1.44208e-07	0	4.00578e-08	41	1.07111	0.000000000000000E+000	4.00578e-08	4.00578e-08	0.0000000E+000	0.000000000000000E+000	2.59098e-08	-0.234097
1	1	0	0	0	0	0	56.283	0.0000000E+000	0.837882	3.01457e-05	1.59988e-07	1.59988e-07	0	4.44411e-08	41	1.07042	0.000000000000000E+000	4.44411e-08	4.44411e-08	0.0000000E+000	0.000000000000000E+000	2.52586e-08	-0.232543
1	1	0	0	0	0	0	56.783	0.0000000E+000	0.838604	3.1352e-05	1.75805e-07	1.75805e-07	0	4.88347e-08	41	1.07032	0.000000000000000E+000	4.88347e-08	4.88347e-08	0.0000000E+000	0.000000000000000E+000	2.62919e-08	-0.231718
1	1	0	0	0	0	0	57.283	0.0000000E+000	0.839322	3.2062e-05	1.9194e-07	1.9194e-07	0	5.33166e-08	41	1.07001	0.000000000000000E+000	5.33166e-08	5.33166e-08	0.0000000E+000	0.000000000000000E+000	2.69103e-08	-0.23069
1	1	0	0	0	0	0	57.783	0.0000000E+000	0.840052	3.23215e-05	2.07967e-07	2.07967e-07	0	5.77685e-08	41	1.06963	0.000000000000000E+000	5.77685e-08	5.77685e-08	0.0000000E+000	0.000000000000000E+000	2.71518e-08	-0.229583
1	1	0	0	0	0	0	58.283	0.0000000E+000	0.840717	3.20811e-05	2.24027e-07	2.24027e-07	0	6.22298e-08	41	1.06926	0.000000000000000E+000	6.22298e-08	6.22298e-08	0.0000000E+000	0.000000000000000E+000	2.69711e-08	-0.22854
1	1	0	0	0	0	0	58.783	0.0000000E+000	0.84137	3.15428e-05	2.39919e-07	2.39919e-07	0	6.66443e-08	41	1.0686	0.000000000000000E+000	6.66443e-08	6.66443e-08	0.0000000E+000	0.000000000000000E+000	2.65392e-08	-0.227234
1	1	0	0	0	0	0	59.283	0.0000000E+000	0.842008	3.08596e-05	2.55848e-07	2.55848e-07	0	7.10689e-08	41	1.0686	0.000000000000000E+000	7.10689e-08	7.10689e-08	0.0000000E+000	0.000000000000000E+000	2.5984e-08	-0.226596
1	1	0	0	0	0	0	59.783	0.0000000E+000	0.842573	3.34858e-05	2.71812e-07	2.71812e-07	0	7.55035e-08	41	1.06809	0.000000000000000E+000	7.55035e-08	7.55035e-08	0.0000000E+000	0.000000000000000E+000	2.82142e-08	-0.225515
1	1	0	0	0	0	0	60.283	0.0000000E+000	0.843173	3.31117e-05	2.8798e-07	2.8798e-07	0	7.99945e-08	41	1.06764	0.000000000000000E+000	7.99945e-08	7.99945e-08	0.0000000E+000	0.000000000000000E+000	2.79189e-08	-0.224468
1	1	0	0	0	0	0	60.783	0.0000000E+000	0.843742	3.12565e-05	3.03897e-07	3.03897e-07	0	8.44159e-08	41	1.06781	0.000000000000000E+000	8.44159e-08	8.44159e-08	0.0000000E+000	0.000000000000000E+000	2.63725e-08	-0.224071
1	1	0	0	0	0	0	61.0966	0.0000000E+000	0.844113	3.23139e-05	3.14058e-07	3.14058e-07	0	8.72384e-08	41	1.06747	0.000000000000000E+000	8.72384e-08	8.72384e-08	0.0000000E+000	0.000000000000000E+000	2.72766e-08	-0.223357
1	1	0	0	0	0	0	102.248	0.0000000E+000	0.810583	3.2699e-05	0.0000000E+000	0.0000000E+000	0	0.000000000000000E+000	41	1.0775	0.000000000000000E+000	0.000000000000000E+000	0.000000000000000E+000	0.0000000E+000	0.000000000000000E+000	2.65053e-08	-0.26692
1	1	0	0	0	0	0	102.366	0.0000000E+000	0.820583	3.01109e-05	3.94596e-09	3.94596e-09	0	1.0961e-09	41	1.07658	0.000000000000000E+000	1.0961e-09	1.0961e-09	0.0000000E+000	0.000000000000000E+000	2.47085e-08	-0.255992
1	1	0	0	0	0	0	102.866	0.0000000E+000	0.82553	3.03519e-05	1.89245e-08	1.89245e-08	0	5.2568e-09	41	1.07596	0.000000000000000E+000	5.2568e-09	5.2568e-09	0.0000000E+000	0.000000000000000E+000	2.50564e-08	-0.250426
[...]
1	1	0	0	0	0	0	104.366	0.0000000E+000	0.830023	3.39935e-05	6.61236e-08	6.61236e-08	0	1.83677e-08	41	1.07448	0.000000000000000E+000	1.83677e-08	1.83677e-08	0.0000000E+000	0.000000000000000E+000	2.82154e-08	-0.244456
1	1	0	0	0	0	0	104.866	0.0000000E+000	0.8312	3.05962e-05	8.20343e-08	8.20343e-08	0	2.27873e-08	41	1.07414	0.000000000000000E+000	2.27873e-08	2.27873e-08	0.0000000E+000	0.000000000000000E+000	2.54315e-08	-0.242935
1	1	0	0	0	0	0	105.366	0.0000000E+000	0.832315	3.26956e-05	9.82012e-08	9.82012e-08	0	2.72781e-08	41	1.07386	0.000000000000000E+000	2.72781e-08	2.72781e-08	0.0000000E+000	0.000000000000000E+000	2.72131e-08	-0.241545
1	1	0	0	0	0	0	105.866	0.0000000E+000	0.833267	3.26765e-05	1.1462e-07	1.1462e-07	0	3.1839e-08	41	1.07359	0.000000000000000E+000	3.1839e-08	3.1839e-08	0.0000000E+000	0.000000000000000E+000	2.72283e-08	-0.240319
1	1	0	0	0	0	0	106.366	0.0000000E+000	0.834168	3.31193e-05	1.30874e-07	1.30874e-07	0	3.63538e-08	41	1.0729	0.000000000000000E+000	3.63538e-08	3.63538e-08	0.0000000E+000	0.000000000000000E+000	2.76271e-08	-0.23873
1	1	0	0	0	0	0	106.866	0.0000000E+000	0.835123	3.22948e-05	1.47033e-07	1.47033e-07	0	4.08424e-08	41	1.07266	0.000000000000000E+000	4.08424e-08	4.08424e-08	0.0000000E+000	0.000000000000000E+000	2.69702e-08	-0.237535
1	1	0	0	0	0	0	107.366	0.0000000E+000	0.835968	3.22528e-05	1.63513e-07	1.63513e-07	0	4.54202e-08	41	1.07228	0.000000000000000E+000	4.54202e-08	4.54202e-08	0.0000000E+000	0.000000000000000E+000	2.69623e-08	-0.236312
1	1	0	0	0	0	0	107.866	0.0000000E+000	0.836888	3.15085e-05	1.80071e-07	1.80071e-07	0	5.00198e-08	41	1.07201	0.000000000000000E+000	5.00198e-08	5.00198e-08	0.0000000E+000	0.000000000000000E+000	2.63691e-08	-0.235117
1	1	0	0	0	0	0	108.366	0.0000000E+000	0.83766	3.17719e-05	1.96396e-07	1.96396e-07	0	5.45544e-08	41	1.07142	0.000000000000000E+000	5.45544e-08	5.45544e-08	0.0000000E+000	0.000000000000000E+000	2.6614e-08	-0.233761
1	1	0	0	0	0	0	108.866	0.0000000E+000	0.838459	3.27453e-05	2.12702e-07	2.12702e-07	0	5.90838e-08	41	1.07125	0.000000000000000E+000	5.90838e-08	5.90838e-08	0.0000000E+000	0.000000000000000E+000	2.74555e-08	-0.232791
1	1	0	0	0	0	0	109.366	0.0000000E+000	0.839211	3.39171e-05	2.29044e-07	2.29044e-07	0	6.36234e-08	41	1.07101	0.000000000000000E+000	6.36234e-08	6.36234e-08	0.0000000E+000	0.000000000000000E+000	2.84636e-08	-0.231797
1	1	0	0	0	0	0	109.866	0.0000000E+000	0.839857	3.1413e-05	2.45255e-07	2.45255e-07	0	6.81264e-08	41	1.07067	0.000000000000000E+000	6.81264e-08	6.81264e-08	0.0000000E+000	0.000000000000000E+000	2.63825e-08	-0.230808
1	1	0	0	0	0	0	110.366	0.0000000E+000	0.840579	3.4066e-05	2.61722e-07	2.61722e-07	0	7.27007e-08	41	1.06994	0.000000000000000E+000	7.27007e-08	7.27007e-08	0.0000000E+000	0.000000000000000E+000	2.86352e-08	-0.229365
1	1	0	0	0	0	0	110.866	0.0000000E+000	0.84132	3.38446e-05	2.78269e-07	2.78269e-07	0	7.72969e-08	41	1.07012	0.000000000000000E+000	7.72969e-08	7.72969e-08	0.0000000E+000	0.000000000000000E+000	2.84742e-08	-0.228795
1	1	0	0	0	0	0	111.366	0.0000000E+000	0.841909	3.3127e-05	2.94793e-07	2.94793e-07	0	8.18869e-08	41	1.0696	0.000000000000000E+000	8.18869e-08	8.18869e-08	0.0000000E+000	0.000000000000000E+000	2.78899e-08	-0.227691
1	1	0	0	0	0	0	111.866	0.0000000E+000	0.842516	3.08977e-05	3.11055e-07	3.11055e-07	0	8.64041e-08	41	1.0695	0.000000000000000E+000	8.64041e-08	8.64041e-08	0.0000000E+000	0.000000000000000E+000	2.60318e-08	-0.226981
1	1	0	0	0	0	0	112.248	0.0000000E+000	0.842917	3.24361e-05	3.23466e-07	3.23466e-07	0	8.98516e-08	41	1.06884	0.000000000000000E+000	8.98516e-08	8.98516e-08	0.0000000E+000	0.000000000000000E+000	2.73409e-08	-0.225927

File: dataset_with_loop_01_05_PEIS_DUSB0_C01.mpt
EC-Lab ASCII FILE
Nb header lines : 70

Potentio Electrochemical Impedance Spectroscopy

Run on channel : 1 (SN 5836)
User :
Electrode connection : standard
Ewe ctrl range : min = -5.00 V, max = 5.00 V
Ewe,I filtering : 50 kHz
Safety Limits :
	Do not start on E overload
Channel : Grounded
Acquisition started on : 06/24/2022 13:13:57
Technique started on : 06/24/2022 13:15:51
Saved on :
	File : 2022-06-24 13_13_40 5_EC_measurements_with_loop_01_05_PEIS_DUSB0_C01.mpr
	Directory : C:\Users\Spectro Inlets Lab_1\Dropbox (Spectro Inlets)\Development\Data\Kenneth reduced data\2022-06-24 13_13_40 5_EC_measurements_with_loop\
	Host : 192.168.50.150
Device : SP-200 (SN 0763)
Address : USB
EC-Lab for windows v11.27 (software)
Internet server v11.25 (firmware)
Command interpretor v11.27 (firmware)
Electrode material :
Initial state :
Electrolyte :
Comments :
Cable : standard
Electrode surface area : 0.001 cm²
Characteristic mass : 0.001 g
Equivalent Weight : 0.000 g/eq.
Density : 0.000 g/cm3
Record Ece
Text export
   Mode : Standard
   Time format : Elapsed
Cycle Definition : Charge/Discharge alternance
Mode                Single sine
E (V)               0.0000
vs.                 Eoc
tE (h:m:s)          0:00:0.0000
record              0
dI                  0.000
unit dI             mA
dt (s)              0.000
fi                  200.000
unit fi             kHz
ff                  100.000
unit ff             Hz
Nd                  6
Points              per decade
spacing             Logarithmic
Va (mV)             10.0
pw                  0.10
Na                  10
corr                0
E range min (V)     -5.000
E range max (V)     5.000
I Range             Auto
Bandwidth           1
nc cycles           0
goto Ns'            0
nr cycles           0
inc. cycle          0

Number of loops : 1
Loop 0 from point number 0 to 15

freq/Hz	Re(Z)/Ohm	-Im(Z)/Ohm	|Z|/Ohm	Phase(Z)/deg	time/s	<Ewe>/V	<I>/mA	Cs/µF	Cp/µF	cycle number	I Range	|Ewe|/V	|I|/A	(Q-Qo)/mA.h	<Ece>/V	|Ece|/V	Phase(Zce)/deg	|Zce|/Ohm	Re(Zce)/Ohm	-Im(Zce)/Ohm	Phase(Zwe-ce)/deg	|Zwe-ce|/Ohm	Re(Zwe-ce)/Ohm	-Im(Zwe-ce)/Ohm	Re(Y)/Ohm-1	Im(Y)/Ohm-1	|Y|/Ohm-1	Phase(Y)/deg	<I>/mA	dq/mA.h
199998	1406.02	-1066.98	1765.03	37.1936	114.964	0.842907	5.95634e-05	-0.000745827	-0.000272549	1	40	0.00976533	5.53266e-06	4.3184e-09	1.05402	0.0526566	-0.76403	9517.41	9516.57	126.909	4.91913	10963	10922.6	-940.07	0.000451322	-0.000342492	0.000566562	-37.1936	0.000000000000000E+000	4.3184e-09
134056	1004.01	-1083.38	1477.07	47.1775	116.163	0.842881	7.119e-05	-0.00109586	-0.000589537	1	40	0.00973497	6.59072e-06	2.80284e-08	0.0000000E+000	0.0675843	-2.96243	10254.5	10240.8	529.962	2.81756	11258.4	11244.8	-553.416	0.000460187	-0.000496566	0.000677015	-47.1775	7.119e-05	2.371e-08
89853	623.539	-974.279	1156.73	57.3807	117.361	0.842893	9.32536e-05	-0.00181804	-0.00128976	1	40	0.00976973	8.446e-06	5.90607e-08	0.0000000E+000	0.0921914	-3.45573	10915.4	10895.5	657.951	1.57302	11523.4	11519.1	-316.329	0.000466016	-0.000728149	0.000864507	-57.3807	9.32536e-05	3.10323e-08
60226.8	345.68	-778.438	851.74	66.0555	118.559	0.842915	9.48007e-05	-0.00339474	-0.00283557	1	40	0.00978365	1.14867e-05	9.06085e-08	0.0000000E+000	0.131091	-3.05826	11412.5	11396.2	608.871	0.827367	11743.1	11741.9	-169.568	0.000476497	-0.00107303	0.00117407	-66.0555	9.48007e-05	3.15479e-08
40370.8	174.34	-575.944	601.753	73.1588	119.758	0.842929	9.5912e-05	-0.00684499	-0.00627043	1	40	0.009778	1.62492e-05	1.22553e-07	0.0000000E+000	0.190601	-2.34116	11729.9	11720.1	479.161	0.466198	11894.8	11894.4	-96.7834	0.000481461	-0.00159054	0.00166181	-73.1588	9.5912e-05	3.19446e-08
27056.1	86.1007	-402.531	411.636	77.9265	120.957	0.8429	0.000106312	-0.0146135	-0.0139742	1	40	0.00967469	2.3503e-05	1.5796e-07	0.0000000E+000	0.279248	-1.72818	11881.4	11876	358.316	0.211777	11962.1	11962.1	-44.2145	0.000508135	-0.00237559	0.00242933	-77.9265	0.000106312	3.54068e-08
18139.5	60.4609	-336.828	342.211	79.8237	122.425	0.842893	0.000920239	-0.0260488	-0.0252357	1	39	0.00951143	2.7794e-05	5.33213e-07	0.0000000E+000	0.325669	-2.25443	11717.2	11708.2	460.921	-0.604128	11769.3	11768.6	124.093	0.00051628	-0.0028762	0.00292217	-79.8237	0.000920239	3.75253e-07
12154.8	33.196	-227.781	230.187	81.7083	123.623	0.842921	0.00086415	-0.057485	-0.0562894	1	39	0.00912822	3.96557e-05	8.20792e-07	0.0000000E+000	0.465866	-1.58565	11747.8	11743.3	325.076	-0.473357	11776.9	11776.5	97.2951	0.000626506	-0.00429889	0.0043443	-81.7083	0.00086415	2.87578e-07
8146.52	21.6742	-155.003	156.511	82.0399	124.821	0.842839	0.00104657	-0.12604	-0.123623	1	39	0.00992523	6.34155e-05	1.16907e-06	0.0000000E+000	0.75175	-1.04931	11854.4	11852.4	217.087	-0.299569	11874.2	11874	62.0837	0.000884816	-0.00632776	0.00638933	-82.0399	0.00104657	3.48277e-07
5465.04	15.5852	-104.793	105.946	81.5408	126.018	0.842838	0.000958824	-0.277903	-0.271889	1	39	0.00995313	9.39453e-05	1.48788e-06	0.0000000E+000	1.1137	-0.894344	11854.7	11853.3	185.036	-0.387356	11869.1	11868.9	80.2424	0.00138849	-0.00933609	0.00943878	-81.5408	0.000958824	3.1881e-07
3820.61	12.3701	-73.7062	74.737	80.4729	127.485	0.842897	0.000943347	-0.565176	-0.549693	1	39	0.00995848	0.000133247	1.87216e-06	0.0000000E+000	1.58182	-0.70626	11871.3	11870.4	146.329	-0.350164	11883	11882.8	72.6228	0.00221463	-0.0131957	0.0133802	-80.4729	0.000943347	3.84277e-07
2454.21	9.76237	-46.6047	47.6162	78.1692	129.607	0.842895	0.0011195	-1.39148	-1.33299	1	39	0.00982987	0.00020644	2.53199e-06	0.0000000E+000	2.14877	-0.561116	10408.7	10408.2	101.934	-0.304293	10418.1	10418	55.3293	0.00430572	-0.0205551	0.0210013	-78.1692	0.0011195	6.59838e-07
1645.53	8.52912	-29.6929	30.8936	73.9736	131.727	0.842831	0.00111575	-3.25733	-3.00906	1	39	0.00949813	0.000307446	3.18902e-06	0.0000000E+000	2.76145	-0.504751	8981.89	8981.54	79.1255	-0.315042	8990.21	8990.07	49.4326	0.00893648	-0.0311111	0.0323692	-73.9736	0.00111575	6.57022e-07
1102.53	7.23077	-18.163	19.5494	68.2923	134.51	0.842853	0.00845921	-7.94772	-6.86043	1	38	0.00951478	0.000486705	9.7296e-06	0.0000000E+000	3.03616	-0.584793	6238.19	6237.87	63.6694	-0.417492	6245.26	6245.1	45.5064	0.0189199	-0.0475249	0.0511525	-68.2923	0.00845921	6.54058e-06
739.291	3.99059	-9.36587	10.1806	66.9222	136.843	0.842786	0.00996623	-22.9856	-19.4539	1	38	0.00985748	0.000968262	1.61877e-05	0.0000000E+000	3.15	-0.579039	3253.25	3253.09	32.8772	-0.413585	3257.16	3257.08	23.5114	0.0385028	-0.0903654	0.0982262	-66.9222	0.00996623	6.45813e-06
495.476	1.92068	-2.51094	3.1613	52.5867	139.802	0.920052	0.0128967	-127.927	-80.7055	1	38	0.00461518	0.0014599	2.67867e-05	0.0000000E+000	3.18539	-0.914869	2181.92	2181.64	34.8383	-0.848194	2183.8	2183.56	32.3274	0.192187	-0.251249	0.316326	-52.5867	0.0128967	1.0599e-05