Folder: ixdat-large-test-files/multiple_techniques_dataset

Note: README.md
# ixdat-large-test-files

This repository contains full data set test files too large for inclusion in the main repository

This repository will be interfaced from ixdat as a git submodule

**IMPORTANT:** The data files submitted to this repository are and will become public, so they should not include any data that the owner is not willing to part with.

File: multiple_techniques_dataset_01_04_CP_C01.mpt
EC-Lab ASCII FILE
Nb header lines : 51

Chronopotentiometry

Run on channel : 1 (SN 5836)
User :
Electrode connection : standard
Ewe ctrl range : min = -10.00 V, max = 10.00 V
Ewe,I filtering : <None>
Safety Limits :
	Do not start on E overload
Channel : Grounded
Acquisition started on : 05/05/2022 15:55:02
Saved on :
	File : multiple_techniques_dataset_01_04_CP_C01.mpr
	Directory : C:\Users\Spectro Inlets\Desktop\Zilien Data Dir\multiple_techniques_dataset\
	Host : 192.168.1.105
Device : SP-200 (SN 0763)
Address : USB
EC-Lab for windows v11.27 (software)
Internet server v11.25 (firmware)
Command interpretor v11.27 (firmware)
Electrode material :
Initial state :
Electrolyte :
Comments :
Cable : standard
Electrode surface area : 0.001 cm²
Characteristic mass : 0.001 g
Equivalent Weight : 0.000 g/eq.
Density : 0.000 g/cm3
Cycle Definition : Charge/Discharge alternance
Is                  -2.000
unit Is             µA
vs.                 <None>
ts (h:m:s)          0:00:10.0000
EM (V)              0.200
dQM                 5.556
unit dQM            nA.h
record              Ewe
dEs (mV)            10.00
dts (s)             1.0000
E range min (V)     -10.000
E range max (V)     10.000
I Range             100 µA
Bandwidth           1
goto Ns'            0
nc cycles           0

mode	ox/red	error	control changes	Ns changes	counter inc.	Ns	time/s	control/mA	Ewe/V	I/mA	dQ/C	(Q-Qo)/C	half cycle	Q charge/discharge/mA.h	I Range	Rcmp/Ohm	Energy charge/W.h	Energy discharge/W.h	Capacitance charge/µF	Capacitance discharge/µF	Q discharge/mA.h	Q charge/mA.h	Capacity/mA.h	Efficiency/%	cycle number	P/W
1	0	0	0	0	0	0	589.481	-0.002	0.826136	-0.00197177	0.0000000E+000	0.0000000E+000	0	0.000000000000000E+000	41	0.0000000E+000	0.000000000000000E+000	0.000000000000000E+000	0.000000000000000E+000	0.000000000000000E+000	0.000000000000000E+000	0.000000000000000E+000	0.000000000000000E+000	0.0000000E+000	0.000000000000000E+000	-1.62895e-06
1	0	0	0	0	0	0	590.187	-0.002	0.816126	-0.00188398	-1.40419e-06	-1.40419e-06	0	-3.90052e-07	41	0.0000000E+000	0.000000000000000E+000	-3.18332e-10	0.000000000000000E+000	0.000000000000000E+000	3.90052e-07	0.000000000000000E+000	3.90052e-07	0.0000000E+000	0.000000000000000E+000	-1.53756e-06
1	0	0	0	0	0	0	591.187	-0.002	0.80737	-0.00199658	-3.38634e-06	-3.38634e-06	0	-9.40651e-07	41	0.0000000E+000	0.000000000000000E+000	-7.62869e-10	0.000000000000000E+000	386.728	9.40651e-07	0.000000000000000E+000	9.40651e-07	0.0000000E+000	0.000000000000000E+000	-1.61198e-06
1	0	0	0	0	0	0	592.055	-0.002	0.797261	-0.00177251	-5.10688e-06	-5.10688e-06	0	-1.41858e-06	41	0.0000000E+000	0.000000000000000E+000	-1.1439e-09	0.000000000000000E+000	270.704	1.41858e-06	0.000000000000000E+000	1.41858e-06	0.0000000E+000	0.000000000000000E+000	-1.41316e-06
1	0	0	0	0	0	0	592.964	-0.002	0.786625	-0.00170762	-6.91123e-06	-6.91123e-06	0	-1.91979e-06	41	0.0000000E+000	0.000000000000000E+000	-1.53816e-09	0.000000000000000E+000	234.27	1.91979e-06	0.000000000000000E+000	1.91979e-06	0.0000000E+000	0.000000000000000E+000	-1.34326e-06
1	0	0	0	0	0	0	593.833	-0.002	0.776539	-0.00188894	-8.6396e-06	-8.6396e-06	0	-2.39989e-06	41	0.0000000E+000	0.000000000000000E+000	-1.91098e-09	0.000000000000000E+000	218.244	2.39989e-06	0.000000000000000E+000	2.39989e-06	0.0000000E+000	0.000000000000000E+000	-1.46684e-06
1	0	0	0	0	0	0	594.546	-0.002	0.76619	-0.0017416	-1.00557e-05	-1.00557e-05	0	-2.79326e-06	41	0.0000000E+000	0.000000000000000E+000	-2.21238e-09	0.000000000000000E+000	201.371	2.79326e-06	0.000000000000000E+000	2.79326e-06	0.0000000E+000	0.000000000000000E+000	-1.33439e-06
1	0	0	0	0	0	0	595.185	-0.002	0.756031	-0.00180534	-1.13245e-05	-1.13245e-05	0	-3.14571e-06	41	0.0000000E+000	0.000000000000000E+000	-2.47884e-09	0.000000000000000E+000	188.445	3.14571e-06	0.000000000000000E+000	3.14571e-06	0.0000000E+000	0.000000000000000E+000	-1.3649e-06
1	0	0	0	0	0	0	595.717	-0.002	0.745961	-0.00176832	-1.23806e-05	-1.23806e-05	0	-3.43905e-06	41	0.0000000E+000	0.000000000000000E+000	-2.69766e-09	0.000000000000000E+000	176.449	3.43905e-06	0.000000000000000E+000	3.43905e-06	0.0000000E+000	0.000000000000000E+000	-1.31909e-06
1	0	0	0	0	0	0	596.209	-0.002	0.735902	-0.00190077	-1.33572e-05	-1.33572e-05	0	-3.71032e-06	41	0.0000000E+000	0.000000000000000E+000	-2.89729e-09	0.000000000000000E+000	166.497	3.71032e-06	0.000000000000000E+000	3.71032e-06	0.0000000E+000	0.000000000000000E+000	-1.39878e-06
1	0	0	0	0	0	0	596.652	-0.002	0.725888	-0.00186489	-1.42346e-05	-1.42346e-05	0	-3.95407e-06	41	0.0000000E+000	0.000000000000000E+000	-3.07422e-09	0.000000000000000E+000	157.746	3.95407e-06	0.000000000000000E+000	3.95407e-06	0.0000000E+000	0.000000000000000E+000	-1.3537e-06
1	0	0	0	0	0	0	597.036	-0.002	0.715783	-0.0018313	-1.49995e-05	-1.49995e-05	0	-4.16653e-06	41	0.0000000E+000	0.000000000000000E+000	-3.2263e-09	0.000000000000000E+000	149.483	4.16653e-06	0.000000000000000E+000	4.16653e-06	0.0000000E+000	0.000000000000000E+000	-1.31081e-06
1	0	0	0	0	0	0	597.39	-0.002	0.705728	-0.00174579	-1.57024e-05	-1.57024e-05	0	-4.36177e-06	41	0.0000000E+000	0.000000000000000E+000	-3.36409e-09	0.000000000000000E+000	142.234	4.36177e-06	0.000000000000000E+000	4.36177e-06	0.0000000E+000	0.000000000000000E+000	-1.23206e-06
1	0	0	0	0	0	0	597.731	-0.002	0.695684	-0.00189314	-1.63809e-05	-1.63809e-05	0	-4.55025e-06	41	0.0000000E+000	0.000000000000000E+000	-3.49521e-09	0.000000000000000E+000	136.007	4.55025e-06	0.000000000000000E+000	4.55025e-06	0.0000000E+000	0.000000000000000E+000	-1.31703e-06
1	0	0	0	0	0	0	598.044	-0.002	0.685606	-0.00189085	-1.70037e-05	-1.70037e-05	0	-4.72326e-06	41	0.0000000E+000	0.000000000000000E+000	-3.61383e-09	0.000000000000000E+000	130.277	4.72326e-06	0.000000000000000E+000	4.72326e-06	0.0000000E+000	0.000000000000000E+000	-1.29638e-06
1	0	0	0	0	0	0	598.335	-0.002	0.675272	-0.00185039	-1.75814e-05	-1.75814e-05	0	-4.88373e-06	41	0.0000000E+000	0.000000000000000E+000	-3.72219e-09	0.000000000000000E+000	124.82	4.88373e-06	0.000000000000000E+000	4.88373e-06	0.0000000E+000	0.000000000000000E+000	-1.24951e-06
1	0	0	0	0	0	0	598.606	-0.002	0.665247	-0.00188818	-1.81204e-05	-1.81204e-05	0	-5.03345e-06	41	0.0000000E+000	0.000000000000000E+000	-3.82179e-09	0.000000000000000E+000	120.099	5.03345e-06	0.000000000000000E+000	5.03345e-06	0.0000000E+000	0.000000000000000E+000	-1.2561e-06
1	0	0	0	0	0	0	598.848	-0.002	0.655005	-0.00181679	-1.86001e-05	-1.86001e-05	0	-5.16671e-06	41	0.0000000E+000	0.000000000000000E+000	-3.90907e-09	0.000000000000000E+000	115.442	5.16671e-06	0.000000000000000E+000	5.16671e-06	0.0000000E+000	0.000000000000000E+000	-1.19001e-06
1	0	0	0	0	0	0	599.088	-0.002	0.644992	-0.00186146	-1.90758e-05	-1.90758e-05	0	-5.29884e-06	41	0.0000000E+000	0.000000000000000E+000	-3.99429e-09	0.000000000000000E+000	111.467	5.29884e-06	0.000000000000000E+000	5.29884e-06	0.0000000E+000	0.000000000000000E+000	-1.20062e-06
1	0	0	0	0	0	0	599.304	-0.002	0.634642	-0.00183054	-1.95059e-05	-1.95059e-05	0	-5.4183e-06	41	0.0000000E+000	0.000000000000000E+000	-4.07011e-09	0.000000000000000E+000	107.48	5.4183e-06	0.000000000000000E+000	5.4183e-06	0.0000000E+000	0.000000000000000E+000	-1.16174e-06
1	0	0	0	0	0	0	599.48	-0.002	0.627196	-0.00193933	-1.98552e-05	-1.98552e-05	0	-5.51534e-06	41	0.0000000E+000	0.000000000000000E+000	-4.13097e-09	0.000000000000000E+000	105.093	5.51534e-06	0.000000000000000E+000	5.51534e-06	0.0000000E+000	0.000000000000000E+000	-1.21634e-06

File: multiple_techniques_dataset_01_05_CA_C01.mpt
EC-Lab ASCII FILE
Nb header lines : 61

Chronoamperometry / Chronocoulometry

Run on channel : 1 (SN 5836)
User :
Electrode connection : standard
Ewe ctrl range : min = -10.00 V, max = 10.00 V
Ewe,I filtering : <None>
Safety Limits :
	Do not start on E overload
Channel : Grounded
Acquisition started on : 05/05/2022 15:55:02
Saved on :
	File : multiple_techniques_dataset_01_05_CA_C01.mpr
	Directory : C:\Users\Spectro Inlets\Desktop\Zilien Data Dir\multiple_techniques_dataset\
	Host : 192.168.1.105
Device : SP-200 (SN 0763)
Address : USB
EC-Lab for windows v11.27 (software)
Internet server v11.25 (firmware)
Command interpretor v11.27 (firmware)
Electrode material :
Initial state :
Electrolyte :
Comments :
Cable : standard
Electrode surface area : 0.001 cm²
Characteristic mass : 0.001 g
Equivalent Weight : 0.000 g/eq.
Density : 0.000 g/cm3
Cycle Definition : Charge/Discharge alternance
Ns                  0                   1                   2
Ei (V)              0.050               1.600               0.200
vs.                 Ref                 Ref                 Ref
ti (h:m:s)          0:00:10.0000        0:00:10.0000        0:00:10.0000
Imax                pass                pass                pass
unit Imax           mA                  mA                  mA
Imin                pass                pass                pass
unit Imin           mA                  mA                  mA
dQM                 0.000               0.000               0.000
unit dQM            mA.h                mA.h                mA.h
record              <I>                 <I>                 <I>
dI                  5.000               5.000               5.000
unit dI             µA                  µA                  µA
dQ                  0.000               0.000               0.000
unit dQ             mA.h                mA.h                mA.h
dt (s)              1.0000              1.0000              1.0000
dta (s)             1.0000              0.1000              0.1000
E range min (V)     -10.000             -10.000             -10.000
E range max (V)     10.000              10.000              10.000
I Range             100 µA              100 µA              100 µA
I Range min         Unset               Unset               Unset
I Range max         Unset               Unset               Unset
I Range init        Unset               Unset               Unset
Bandwidth           1                   1                   1
goto Ns'            0                   0                   0
nc cycles           0                   0                   0

mode	ox/red	error	control changes	Ns changes	counter inc.	Ns	time/s	control/V	Ewe/V	<I>/mA	dQ/C	(Q-Qo)/C	I Range	Rcmp/Ohm	Q charge/discharge/mA.h	half cycle	Energy charge/W.h	Energy discharge/W.h	Capacitance charge/µF	Capacitance discharge/µF	Q discharge/mA.h	Q charge/mA.h	Capacity/mA.h	Efficiency/%	cycle number	P/W
2	0	1	0	0	0	0	600.581	0.0500354	0.0497974	-0.0364021	-3.64021e-05	-3.64021e-05	41	0.0000000E+000	-1.01117e-05	0	0.000000000000000E+000	-5.03536e-10	0.000000000000000E+000	0.000000000000000E+000	1.01117e-05	0.000000000000000E+000	1.01117e-05	0.0000000E+000	0.000000000000000E+000	-1.81273e-06
2	0	0	0	0	0	0	605.581	0.0500354	0.0506073	-0.00243274	-5.0523e-05	-5.0523e-05	41	0.0000000E+000	-1.40342e-05	0	0.000000000000000E+000	-7.01757e-10	0.000000000000000E+000	62380.2	1.40342e-05	0.000000000000000E+000	1.40342e-05	0.0000000E+000	0.000000000000000E+000	-1.23114e-07
2	1	1	1	1	0	1	610.006	1.5999	1.60261	0.250228	0.000106447	4.68666e-05	41	0.0000000E+000	2.95687e-05	2	4.73872e-08	0.000000000000000E+000	0.000000000000000E+000	0.000000000000000E+000	0.000000000000000E+000	2.95687e-05	2.95687e-05	0.0000000E+000	1	0.00040102
2	1	0	1	0	0	1	610.506	1.5999	1.59976	0.0405849	0.000141929	8.23486e-05	41	0.0000000E+000	3.94248e-05	2	6.31591e-08	0.000000000000000E+000	49734.2	0.000000000000000E+000	0.000000000000000E+000	3.94248e-05	3.94248e-05	0.0000000E+000	1	6.49261e-05
2	1	0	1	0	0	1	611.006	1.5999	1.60083	0.0264203	0.000157319	9.77384e-05	41	0.0000000E+000	4.36997e-05	2	7.00004e-08	0.000000000000000E+000	88184.9	0.000000000000000E+000	0.000000000000000E+000	4.36997e-05	4.36997e-05	0.0000000E+000	1	4.22945e-05
2	1	0	1	0	0	1	611.506	1.5999	1.59986	0.0207223	0.000168668	0.000109088	41	0.0000000E+000	4.68523e-05	2	7.50451e-08	0.000000000000000E+000	61150.1	0.000000000000000E+000	0.000000000000000E+000	4.68523e-05	4.68523e-05	0.0000000E+000	1	3.31527e-05
2	1	0	1	0	0	1	612.006	1.5999	1.59965	0.0175052	0.000178002	0.000118421	41	0.0000000E+000	4.94449e-05	2	7.9194e-08	0.000000000000000E+000	60121.8	0.000000000000000E+000	0.000000000000000E+000	4.94449e-05	4.94449e-05	0.0000000E+000	1	2.80023e-05
2	1	0	1	0	0	1	612.506	1.5999	1.60069	0.0154021	0.000186094	0.000126513	41	0.0000000E+000	5.16927e-05	2	8.27916e-08	0.000000000000000E+000	96654.6	0.000000000000000E+000	0.000000000000000E+000	5.16927e-05	5.16927e-05	0.0000000E+000	1	2.4654e-05
2	1	0	1	0	0	1	613.006	1.5999	1.6002	0.0139034	0.000193325	0.000133744	41	0.0000000E+000	5.37013e-05	2	8.60048e-08	0.000000000000000E+000	80069.4	0.000000000000000E+000	0.000000000000000E+000	5.37013e-05	5.37013e-05	0.0000000E+000	1	2.22482e-05
2	1	0	1	0	0	1	613.506	1.5999	1.59999	0.0127493	0.000199919	0.000140338	41	0.0000000E+000	5.5533e-05	2	8.89359e-08	0.000000000000000E+000	76284.5	0.000000000000000E+000	0.000000000000000E+000	5.5533e-05	5.5533e-05	0.0000000E+000	1	2.03989e-05
2	1	0	1	0	0	1	614.006	1.5999	1.60084	0.0118397	0.000206015	0.000146435	41	0.0000000E+000	5.72264e-05	2	9.16456e-08	0.000000000000000E+000	116219	0.000000000000000E+000	0.000000000000000E+000	5.72264e-05	5.72264e-05	0.0000000E+000	1	1.89535e-05
2	1	0	1	0	0	1	614.506	1.5999	1.60109	0.0111173	0.000211712	0.000152132	41	0.0000000E+000	5.8809e-05	2	9.41782e-08	0.000000000000000E+000	138553	0.000000000000000E+000	0.000000000000000E+000	5.8809e-05	5.8809e-05	0.0000000E+000	1	1.77997e-05
2	1	0	1	0	0	1	615.006	1.5999	1.60124	0.0104919	0.000217082	0.000157502	41	0.0000000E+000	6.03006e-05	2	9.65654e-08	0.000000000000000E+000	158281	0.000000000000000E+000	0.000000000000000E+000	6.03006e-05	6.03006e-05	0.0000000E+000	1	1.68001e-05
2	1	0	1	0	0	1	615.506	1.5999	1.60082	0.00998187	0.000222173	0.000162592	41	0.0000000E+000	6.17147e-05	2	9.88284e-08	0.000000000000000E+000	123474	0.000000000000000E+000	0.000000000000000E+000	6.17147e-05	6.17147e-05	0.0000000E+000	1	1.59791e-05
2	1	0	1	0	0	1	616.006	1.5999	1.59959	0.0095264	0.00022703	0.00016745	41	0.0000000E+000	6.3064e-05	2	1.00988e-07	0.000000000000000E+000	75035.2	0.000000000000000E+000	0.000000000000000E+000	6.3064e-05	6.3064e-05	0.0000000E+000	1	1.52383e-05
2	1	0	1	0	0	1	616.506	1.5999	1.6003	0.00915041	0.000231681	0.000172101	41	0.0000000E+000	6.43559e-05	2	1.03055e-07	0.000000000000000E+000	100242	0.000000000000000E+000	0.000000000000000E+000	6.43559e-05	6.43559e-05	0.0000000E+000	1	1.46434e-05
2	1	0	1	0	0	1	617.006	1.5999	1.60128	0.00879994	0.000236151	0.00017657	41	0.0000000E+000	6.55974e-05	2	1.05042e-07	0.000000000000000E+000	177126	0.000000000000000E+000	0.000000000000000E+000	6.55974e-05	6.55974e-05	0.0000000E+000	1	1.40912e-05
[...]
2	0	0	0	0	0	2	622.317	0.199958	0.200363	-0.00585921	-0.000132901	6.44624e-05	41	0.0000000E+000	-3.6917e-05	3	1.14362e-07	-7.3043e-09	184.504	24010	3.6917e-05	0.000000000000000E+000	3.6917e-05	0.0000000E+000	1	-1.17397e-06
2	0	0	0	0	0	2	622.817	0.199958	0.200542	-0.00484088	-0.000135515	6.18481e-05	41	0.0000000E+000	-3.76432e-05	3	1.14362e-07	-7.44975e-09	184.504	23716.1	3.76432e-05	0.000000000000000E+000	3.76432e-05	0.0000000E+000	1	-9.70802e-07
2	0	0	0	0	0	2	623.317	0.199958	0.200015	-0.00403586	-0.000137681	5.96823e-05	41	0.0000000E+000	-3.82448e-05	3	1.14362e-07	-7.57007e-09	184.504	26512.6	3.82448e-05	0.000000000000000E+000	3.82448e-05	0.0000000E+000	1	-8.07233e-07
2	0	0	0	0	0	2	623.817	0.199958	0.199935	-0.00337417	-0.000139492	5.78712e-05	41	0.0000000E+000	-3.87479e-05	3	1.14362e-07	-7.67079e-09	184.504	27275.1	3.87479e-05	0.000000000000000E+000	3.87479e-05	0.0000000E+000	1	-6.74615e-07
2	0	0	0	0	0	2	624.317	0.199958	0.199725	-0.00286884	-0.00014102	5.63437e-05	41	0.0000000E+000	-3.91722e-05	3	1.14362e-07	-7.75578e-09	184.504	28740	3.91722e-05	0.000000000000000E+000	3.91722e-05	0.0000000E+000	1	-5.72979e-07
2	0	0	0	0	0	2	624.817	0.199958	0.199721	-0.00243238	-0.000142319	5.50449e-05	41	0.0000000E+000	-3.9533e-05	3	1.14362e-07	-7.82794e-09	184.504	29024.4	3.9533e-05	0.000000000000000E+000	3.9533e-05	0.0000000E+000	1	-4.85797e-07
2	0	0	0	0	0	2	625.317	0.199958	0.200088	-0.00212063	-0.000143443	5.3921e-05	41	0.0000000E+000	-3.98451e-05	3	1.14362e-07	-7.89042e-09	184.504	27234.1	3.98451e-05	0.000000000000000E+000	3.98451e-05	0.0000000E+000	1	-4.24313e-07
2	0	0	0	0	0	2	625.817	0.199958	0.199996	-0.00186843	-0.00014443	5.29337e-05	41	0.0000000E+000	-4.01194e-05	3	1.14362e-07	-7.94535e-09	184.504	27900.8	4.01194e-05	0.000000000000000E+000	4.01194e-05	0.0000000E+000	1	-3.7368e-07
2	0	0	0	0	0	2	626.317	0.199958	0.200283	-0.00167606	-0.000145306	5.20576e-05	41	0.0000000E+000	-4.03628e-05	3	1.14362e-07	-7.99408e-09	184.504	26609.6	4.03628e-05	0.000000000000000E+000	4.03628e-05	0.0000000E+000	1	-3.35686e-07
2	0	0	0	0	0	2	626.817	0.199958	0.199744	-0.00151253	-0.000146097	5.12669e-05	41	0.0000000E+000	-4.05824e-05	3	1.14362e-07	-8.038e-09	184.504	29650.2	4.05824e-05	0.000000000000000E+000	4.05824e-05	0.0000000E+000	1	-3.02119e-07
2	0	0	0	0	0	2	627.317	0.199958	0.20016	-0.00136536	-0.00014681	5.05534e-05	41	0.0000000E+000	-4.07806e-05	3	1.14362e-07	-8.07772e-09	184.504	27492.1	4.07806e-05	0.000000000000000E+000	4.07806e-05	0.0000000E+000	1	-2.73292e-07
2	0	0	0	0	0	2	627.817	0.199958	0.200596	-0.0012688	-0.000147469	4.98947e-05	41	0.0000000E+000	-4.09636e-05	3	1.14362e-07	-8.11439e-09	184.504	25550	4.09636e-05	0.000000000000000E+000	4.09636e-05	0.0000000E+000	1	-2.54515e-07
2	0	0	0	0	0	2	628.317	0.199958	0.200313	-0.00117945	-0.000148079	4.92845e-05	41	0.0000000E+000	-4.11331e-05	3	1.14362e-07	-8.14831e-09	184.504	26963.1	4.11331e-05	0.000000000000000E+000	4.11331e-05	0.0000000E+000	1	-2.3626e-07
2	0	0	0	0	0	2	628.817	0.199958	0.200802	-0.00110858	-0.000148646	4.87172e-05	41	0.0000000E+000	-4.12907e-05	3	1.14362e-07	-8.17991e-09	184.504	24871.4	4.12907e-05	0.000000000000000E+000	4.12907e-05	0.0000000E+000	1	-2.22606e-07
2	0	0	0	0	0	2	629.317	0.199958	0.200099	-0.00104957	-0.000149182	4.81812e-05	41	0.0000000E+000	-4.14395e-05	3	1.14362e-07	-8.2097e-09	184.504	28252.6	4.14395e-05	0.000000000000000E+000	4.14395e-05	0.0000000E+000	1	-2.10017e-07
2	0	0	0	0	0	2	629.581	0.199958	0.200267	-0.00100174	-0.000149453	4.7911e-05	41	0.0000000E+000	-4.15146e-05	3	1.14362e-07	-8.2247e-09	184.504	27437.8	4.15146e-05	0.000000000000000E+000	4.15146e-05	58.1654	1	-2.00617e-07