Folder: ixdat-large-test-files/multiple_techniques_dataset (part 2)

File: multiple_techniques_dataset_01_06_CA_C01.mpt
EC-Lab ASCII FILE
Nb header lines : 60

Chronoamperometry / Chronocoulometry

Run on channel : 1 (SN 5836)
User :
Electrode connection : standard
Ewe ctrl range : min = -10.00 V, max = 10.00 V
Ewe,I filtering : <None>
Safety Limits :
	Do not start on E overload
Channel : Grounded
Acquisition started on : 05/05/2022 15:55:02
Saved on :
	File : multiple_techniques_dataset_01_06_CA_C01.mpr
	Directory : C:\Users\Spectro Inlets\Desktop\Zilien Data Dir\multiple_techniques_dataset\
	Host : 192.168.1.105
Device : SP-200 (SN 0763)
Address : USB
EC-Lab for windows v11.27 (software)
Internet server v11.25 (firmware)
Command interpretor v11.27 (firmware)
Electrode material :
Initial state :
Electrolyte :
Comments :
Cable : standard
Electrode surface area : 0.001 cm²
Characteristic mass : 0.001 g
Equivalent Weight : 0.000 g/eq.
Density : 0.000 g/cm3
Cycle Definition : Charge/Discharge alternance
Ei (V)              0.050
vs.                 Ref
ti (h:m:s)          0:00:10.0000
Imax                pass
unit Imax           mA
Imin                pass
unit Imin           mA
dQM                 0.000
unit dQM            mA.h
record              I
dI                  5.000
unit dI             µA
dQ                  0.000
unit dQ             mA.h
dt (s)              1.0000
dta (s)             0.1000
E range min (V)     -10.000
E range max (V)     10.000
I Range             100 µA
I Range min         Unset
I Range max         Unset
I Range init        Unset
Bandwidth           1
goto Ns'            0
nc cycles           0

mode	ox/red	error	control changes	Ns changes	counter inc.	Ns	time/s	control/V	Ewe/V	I/mA	dQ/C	(Q-Qo)/C	I Range	Rcmp/Ohm	Q charge/discharge/mA.h	half cycle	Energy charge/W.h	Energy discharge/W.h	Capacitance charge/µF	Capacitance discharge/µF	Q discharge/mA.h	Q charge/mA.h	Capacity/mA.h	Efficiency/%	cycle number	P/W
2	0	0	0	0	0	0	629.681	0.0500354	0.198155	-0.250092	0.0000000E+000	0.0000000E+000	41	0.0000000E+000	0.000000000000000E+000	0	0.000000000000000E+000	0.000000000000000E+000	0.000000000000000E+000	0.000000000000000E+000	0.000000000000000E+000	0.000000000000000E+000	0.000000000000000E+000	0.0000000E+000	0.000000000000000E+000	-4.95569e-05
2	0	0	0	0	0	0	629.799	0.0500354	0.0450754	-0.200797	-2.94238e-05	-2.94238e-05	41	0.0000000E+000	-8.17327e-06	0	0.000000000000000E+000	-3.70142e-10	0.000000000000000E+000	140030	8.17327e-06	0.000000000000000E+000	8.17327e-06	0.0000000E+000	0.000000000000000E+000	-9.05098e-06
2	0	0	0	0	0	0	629.8	0.0500354	0.0446398	-0.154554	-2.96323e-05	-2.96323e-05	41	0.0000000E+000	-8.2312e-06	0	0.000000000000000E+000	-3.72766e-10	0.000000000000000E+000	45895.4	8.2312e-06	0.000000000000000E+000	8.2312e-06	0.0000000E+000	0.000000000000000E+000	-6.89927e-06
2	0	0	0	0	0	0	629.802	0.0500354	0.0444526	-0.109313	-2.97861e-05	-2.97861e-05	41	0.0000000E+000	-8.2739e-06	0	0.000000000000000E+000	-3.74675e-10	0.000000000000000E+000	35764.2	8.2739e-06	0.000000000000000E+000	8.2739e-06	0.0000000E+000	0.000000000000000E+000	-4.85924e-06
2	0	0	0	0	0	0	629.803	0.0500354	0.0439827	-0.0652957	-2.98865e-05	-2.98865e-05	41	0.0000000E+000	-8.30181e-06	0	0.000000000000000E+000	-3.75905e-10	0.000000000000000E+000	22941	8.30181e-06	0.000000000000000E+000	8.30181e-06	0.0000000E+000	0.000000000000000E+000	-2.87189e-06
2	0	0	0	0	0	0	629.804	0.0500354	0.0436733	-0.0228374	-2.99352e-05	-2.99352e-05	41	0.0000000E+000	-8.31533e-06	0	0.000000000000000E+000	-3.765e-10	0.000000000000000E+000	18567.8	8.31533e-06	0.000000000000000E+000	8.31533e-06	0.0000000E+000	0.000000000000000E+000	-9.97383e-07
2	1	0	0	0	0	0	629.805	0.0500354	0.043551	0.0190156	-2.99332e-05	-2.99332e-05	41	0.0000000E+000	2.01453e-09	2	8.74572e-14	0.000000000000000E+000	7.97614	0.000000000000000E+000	0.000000000000000E+000	2.01453e-09	2.01453e-09	0.0000000E+000	1	8.28149e-07
2	1	0	0	0	0	0	629.806	0.0500354	0.0438758	0.0589645	-2.98822e-05	-2.98822e-05	41	0.0000000E+000	1.61814e-08	2	7.02954e-13	0.000000000000000E+000	47.2072	0.000000000000000E+000	0.000000000000000E+000	1.61814e-08	1.61814e-08	0.0000000E+000	1	2.58711e-06
2	1	0	0	0	0	0	629.808	0.0500354	0.0437421	0.097824	-2.97838e-05	-2.97838e-05	41	0.0000000E+000	4.35168e-08	2	1.89261e-12	0.000000000000000E+000	142.383	0.000000000000000E+000	0.000000000000000E+000	4.35168e-08	4.35168e-08	0.0000000E+000	1	4.27902e-06
2	1	0	0	0	0	0	629.809	0.0500354	0.0431652	0.134705	-2.96404e-05	-2.96404e-05	41	0.0000000E+000	8.33244e-08	2	3.61114e-12	0.000000000000000E+000	573.122	0.000000000000000E+000	0.000000000000000E+000	8.33244e-08	8.33244e-08	0.0000000E+000	1	5.81457e-06
2	1	0	0	0	0	0	629.81	0.0500354	0.043276	0.169704	-2.94541e-05	-2.94541e-05	41	0.0000000E+000	1.3508e-07	2	5.84775e-12	0.000000000000000E+000	766.796	0.000000000000000E+000	0.000000000000000E+000	1.3508e-07	1.3508e-07	0.0000000E+000	1	7.3441e-06
2	1	0	0	0	0	0	629.811	0.0500354	0.0425921	0.203215	-2.92268e-05	-2.92268e-05	41	0.0000000E+000	1.98216e-07	2	8.56993e-12	0.000000000000000E+000	14367.6	0.000000000000000E+000	0.000000000000000E+000	1.98216e-07	1.98216e-07	0.0000000E+000	1	8.65535e-06
2	1	0	0	0	0	0	629.813	0.0500354	0.0432721	0.243385	-2.8865e-05	-2.8865e-05	41	0.0000000E+000	2.98719e-07	2	1.28778e-11	0.000000000000000E+000	1705.98	0.000000000000000E+000	0.000000000000000E+000	2.98719e-07	2.98719e-07	0.0000000E+000	1	1.05318e-05
2	1	0	0	0	0	0	629.842	0.0500354	0.0507716	0.200846	-2.17405e-05	-2.17405e-05	41	0.0000000E+000	2.27775e-06	2	1.1372e-10	0.000000000000000E+000	1008.62	0.000000000000000E+000	0.000000000000000E+000	2.27775e-06	2.27775e-06	0.0000000E+000	1	1.01973e-05
2	1	0	0	0	0	0	629.844	0.0500354	0.0518375	0.154562	-2.13186e-05	-2.13186e-05	41	0.0000000E+000	2.39495e-06	2	1.19802e-10	0.000000000000000E+000	937.593	0.000000000000000E+000	0.000000000000000E+000	2.39495e-06	2.39495e-06	0.0000000E+000	1	8.01211e-06
2	1	0	0	0	0	0	629.847	0.0500354	0.0523952	0.108124	-2.10083e-05	-2.10083e-05	41	0.0000000E+000	2.48113e-06	2	1.24339e-10	0.000000000000000E+000	915.786	0.000000000000000E+000	0.000000000000000E+000	2.48113e-06	2.48113e-06	0.0000000E+000	1	5.66516e-06
2	1	0	0	0	0	0	629.849	0.0500354	0.0541182	0.0622859	-2.08089e-05	-2.08089e-05	41	0.0000000E+000	2.53654e-06	2	1.27282e-10	0.000000000000000E+000	795.677	0.000000000000000E+000	0.000000000000000E+000	2.53654e-06	2.53654e-06	0.0000000E+000	1	3.3708e-06
2	1	0	0	0	0	0	629.851	0.0500354	0.0531861	0.0193519	-2.07158e-05	-2.07158e-05	41	0.0000000E+000	2.56239e-06	2	1.2866e-10	0.000000000000000E+000	874.845	0.000000000000000E+000	0.000000000000000E+000	2.56239e-06	2.56239e-06	0.0000000E+000	1	1.02925e-06
2	0	0	0	0	0	0	629.854	0.0500354	0.0533771	-0.0192732	-2.07203e-05	-2.07203e-05	41	0.0000000E+000	-3.66779e-09	3	1.28797e-10	-2.03547e-13	826.886	325.968	3.66779e-09	0.000000000000000E+000	3.66779e-09	0.0000000E+000	1	-1.02875e-06
2	0	0	0	0	0	0	629.856	0.0500354	0.0538585	-0.0529188	-2.08113e-05	-2.08113e-05	41	0.0000000E+000	-2.89664e-08	3	1.28797e-10	-1.56106e-12	826.886	238.477	2.89664e-08	0.000000000000000E+000	2.89664e-08	0.0000000E+000	1	-2.85013e-06
2	0	0	0	0	0	0	629.86	0.0500354	0.0545003	-0.0898938	-2.10615e-05	-2.10615e-05	41	0.0000000E+000	-9.84573e-08	3	1.28797e-10	-5.29557e-12	826.886	328.294	9.84573e-08	0.000000000000000E+000	9.84573e-08	0.0000000E+000	1	-4.89924e-06
[...]
2	1	0	0	0	0	0	629.891	0.0500354	0.0483227	0.0582656	-2.30126e-05	-2.30126e-05	41	0.0000000E+000	5.46687e-08	4	2.65226e-12	-4.37564e-15	143.332	0.000000000000000E+000	0.000000000000000E+000	5.46687e-08	5.46687e-08	0.0000000E+000	2	2.81555e-06
2	1	0	0	0	0	0	629.897	0.0500354	0.0488576	0.0929441	-2.25763e-05	-2.25763e-05	41	0.0000000E+000	1.75858e-07	4	8.52804e-12	-4.37564e-15	753.626	0.000000000000000E+000	0.000000000000000E+000	1.75858e-07	1.75858e-07	0.0000000E+000	2	4.54102e-06
2	1	0	0	0	0	0	629.913	0.0500354	0.0505615	0.0809761	-2.0929e-05	-2.0929e-05	41	0.0000000E+000	6.33447e-07	4	3.10384e-11	-4.37564e-15	2641.56	0.000000000000000E+000	0.000000000000000E+000	6.33447e-07	6.33447e-07	0.0000000E+000	2	4.09427e-06
2	1	0	0	0	0	0	629.919	0.0500354	0.0505576	0.0466666	-2.05432e-05	-2.05432e-05	41	0.0000000E+000	7.40619e-07	4	3.64727e-11	-4.37564e-15	3102.14	0.000000000000000E+000	0.000000000000000E+000	7.40619e-07	7.40619e-07	0.0000000E+000	2	2.35936e-06
2	1	0	0	0	0	0	629.925	0.0500354	0.0505309	0.0125168	-2.03813e-05	-2.03813e-05	41	0.0000000E+000	7.8559e-07	4	3.87625e-11	-4.37564e-15	3396.13	0.000000000000000E+000	0.000000000000000E+000	7.8559e-07	7.8559e-07	0.0000000E+000	2	6.32485e-07
2	0	0	0	0	0	0	629.931	0.0500354	0.0513064	-0.0207849	-2.04188e-05	-2.04188e-05	41	0.0000000E+000	-1.38092e-08	5	3.89343e-11	-7.1111e-13	2124.43	18.845	1.38092e-08	0.000000000000000E+000	1.38092e-08	0.0000000E+000	2	-1.0664e-06
2	0	0	0	0	0	0	629.952	0.0500354	0.049847	-0.0213208	-2.11429e-05	-2.11429e-05	41	0.0000000E+000	-2.14935e-07	5	3.89343e-11	-1.07552e-11	2124.43	647.348	2.14935e-07	0.000000000000000E+000	2.14935e-07	0.0000000E+000	2	-1.06278e-06
2	1	0	0	0	0	0	629.962	0.0500354	0.0492549	0.0102524	-2.11913e-05	-2.11913e-05	41	0.0000000E+000	4.88298e-09	6	2.41367e-13	0.000000000000000E+000	25.8501	0.000000000000000E+000	0.000000000000000E+000	4.88298e-09	4.88298e-09	0.0000000E+000	3	5.04983e-07
2	1	0	0	0	0	0	629.983	0.0500354	0.0505806	0.0318723	-2.05335e-05	-2.05335e-05	41	0.0000000E+000	1.8762e-07	6	9.37409e-12	0.000000000000000E+000	1046.13	0.000000000000000E+000	0.000000000000000E+000	1.8762e-07	1.8762e-07	0.0000000E+000	3	1.61212e-06
2	1	0	0	0	0	0	629.998	0.0500354	0.0506417	0.000765162	-2.02783e-05	-2.02783e-05	41	0.0000000E+000	2.58502e-07	6	1.29457e-11	0.000000000000000E+000	1316.7	0.000000000000000E+000	0.000000000000000E+000	2.58502e-07	2.58502e-07	0.0000000E+000	3	3.87491e-08
2	1	0	0	0	0	0	630.032	0.0500354	0.0496331	0.000990377	-2.06196e-05	-2.06196e-05	41	0.0000000E+000	-1.868e-09	8	0.000000000000000E+000	-9.27147e-14	0.000000000000000E+000	0.000000000000000E+000	1.868e-09	0.000000000000000E+000	1.868e-09	0.0000000E+000	4	4.91555e-08
2	1	0	0	0	0	0	630.109	0.0500354	0.049996	0.000954495	-2.05081e-05	-2.05081e-05	41	0.0000000E+000	-4.56258e-08	10	0.000000000000000E+000	-2.28111e-12	0.000000000000000E+000	0.000000000000000E+000	4.56258e-08	0.000000000000000E+000	4.56258e-08	0.0000000E+000	5	4.7721e-08
2	0	0	0	0	0	0	635.15	0.0500354	0.0506722	-0.0018752	-3.40854e-05	-3.40854e-05	41	0.0000000E+000	-3.77146e-06	11	3.03116e-13	-1.92629e-10	0.000000000000000E+000	20353.2	3.77146e-06	0.000000000000000E+000	3.77146e-06	0.0000000E+000	5	-9.50205e-08
2	0	0	0	0	0	0	639.681	0.0500354	0.0500381	-0.00184504	-4.41304e-05	-4.41304e-05	41	0.0000000E+000	-6.56174e-06	11	3.03116e-13	-3.32753e-10	0.000000000000000E+000	566521	6.56174e-06	0.000000000000000E+000	6.56174e-06	109702	5	-9.23223e-08