Folder: ixdat-large-test-files/zilien_version_1

Note: README.md
# ixdat-large-test-files

This repository contains full data set test files too large for inclusion in the main repository

This repository will be interfaced from ixdat as a git submodule

**IMPORTANT:** The data files submitted to this repository are and will become public, so they should not include any data that the owner is not willing to part with.

File: 2022-04-06 16_17_23 full set_01_01_CP_DUSB0_C01.mpt
EC-Lab ASCII FILE
Nb header lines : 59

Chronopotentiometry

Run on channel : 1 (SN 5836)
User :
Electrode connection : standard
Ewe ctrl range : min = -10.00 V, max = 5.00 V
Ewe,I filtering : 50 kHz
Safety Limits :
	Do not start on E overload
Channel : Floating
Acquisition started on : 04/06/2022 16:19:01
Technique started on : 04/06/2022 16:19:01
Saved on :
	File : 2022-04-06 16_17_23 full set_01_01_CP_DUSB0_C01.mpr
	Directory : C:\Users\Spectro Inlets Lab_1\Dropbox (Spectro Inlets)\Development\Data\Kenneth reduced data\2022-04-06 16_17_23 full set\
	Host : 192.168.1.105
Device : SP-200 (SN 0763)
Address : USB
EC-Lab for windows v11.27 (software)
Internet server v11.25 (firmware)
Command interpretor v11.27 (firmware)
Electrode material :
Initial state :
Electrolyte :
Comments :
Cable : standard
Electrode surface area : 0.001 cm²
Characteristic mass : 0.001 g
Equivalent Weight : 0.000 g/eq.
Density : 0.000 g/cm3
Record Ece
Text export
   Mode : Standard
   Time format : Elapsed
Cycle Definition : Charge/Discharge alternance
Is                  0.000
unit Is             µA
vs.                 <None>
ts (h:m:s)          0:00:10.0000
EM (V)              pass
dQM                 0.000
unit dQM            mA.h
record              Ewe
dEs (mV)            10.00
dts (s)             1.0000
E range min (V)     -10.000
E range max (V)     5.000
I Range             10 µA
Bandwidth           1
goto Ns'            0
nc cycles           0

Number of loops : 1
Loop 0 from point number 0 to 10

mode	ox/red	error	control changes	Ns changes	counter inc.	Ns	time/s	control/mA	Ewe/V	I/mA	dQ/C	(Q-Qo)/C	half cycle	Q charge/discharge/mA.h	I Range	Ece/V	Q discharge/mA.h	Q charge/mA.h	Capacity/mA.h	Efficiency/%	cycle number	P/W	Ewe-Ece/V
1	1	0	0	0	0	0	0.000000000000000E+000	0.0000000E+000	0.591712	1.66552e-06	0.0000000E+000	0.0000000E+000	0	0.000000000000000E+000	42	1.30393	0.000000000000000E+000	0.000000000000000E+000	0.000000000000000E+000	0.0000000E+000	0.000000000000000E+000	9.85505e-10	-0.712217
1	1	0	0	0	0	0	1	0.0000000E+000	0.592382	1.24591e-06	1.38718e-09	1.38718e-09	0	3.85329e-10	42	1.30393	0.000000000000000E+000	3.85329e-10	3.85329e-10	0.0000000E+000	0.000000000000000E+000	7.38058e-10	-0.711547
1	1	0	0	0	0	0	2	0.0000000E+000	0.593158	1.89439e-06	2.92641e-09	2.92641e-09	0	8.12893e-10	42	1.30362	0.000000000000000E+000	8.12893e-10	8.12893e-10	0.0000000E+000	0.000000000000000E+000	1.12367e-09	-0.710462
1	1	0	0	0	0	0	3	0.0000000E+000	0.593964	2.08512e-06	4.57532e-09	4.57532e-09	0	1.27092e-09	42	1.30414	0.000000000000000E+000	1.27092e-09	1.27092e-09	0.0000000E+000	0.000000000000000E+000	1.23848e-09	-0.710171
1	1	0	0	0	0	0	4	0.0000000E+000	0.594781	2.12326e-06	6.20961e-09	6.20961e-09	0	1.72489e-09	42	1.30314	0.000000000000000E+000	1.72489e-09	1.72489e-09	0.0000000E+000	0.000000000000000E+000	1.26288e-09	-0.708357
1	1	0	0	0	0	0	5	0.0000000E+000	0.595545	1.51293e-06	7.8818e-09	7.8818e-09	0	2.18939e-09	42	1.3031	0.000000000000000E+000	2.18939e-09	2.18939e-09	0.0000000E+000	0.000000000000000E+000	9.01021e-10	-0.707559
1	1	0	0	0	0	0	6	0.0000000E+000	0.596359	1.51293e-06	9.67168e-09	9.67168e-09	0	2.68658e-09	42	1.30345	0.000000000000000E+000	2.68658e-09	2.68658e-09	0.0000000E+000	0.000000000000000E+000	9.02252e-10	-0.707089
1	1	0	0	0	0	0	7	0.0000000E+000	0.59715	2.08512e-06	1.1467e-08	1.1467e-08	0	3.18529e-09	42	1.30283	0.000000000000000E+000	3.18529e-09	3.18529e-09	0.0000000E+000	0.000000000000000E+000	1.24513e-09	-0.705679
1	1	0	0	0	0	0	8	0.0000000E+000	0.597956	1.89439e-06	1.32878e-08	1.32878e-08	0	3.69107e-09	42	1.30273	0.000000000000000E+000	3.69107e-09	3.69107e-09	0.0000000E+000	0.000000000000000E+000	1.13276e-09	-0.70477
1	1	0	0	0	0	0	9	0.0000000E+000	0.59872	2.12326e-06	1.51044e-08	1.51044e-08	0	4.19568e-09	42	1.30297	0.000000000000000E+000	4.19568e-09	4.19568e-09	0.0000000E+000	0.000000000000000E+000	1.27124e-09	-0.704247
1	1	0	0	0	0	0	9.9998	0.0000000E+000	0.59953	2.00882e-06	1.68973e-08	1.68973e-08	0	4.69369e-09	42	1.30207	0.000000000000000E+000	4.69369e-09	4.69369e-09	0.0000000E+000	0.000000000000000E+000	1.20435e-09	-0.702543

File: 2022-04-06 16_17_23 full set_01_02_CVA_DUSB0_C01.mpt
EC-Lab ASCII FILE
Nb header lines : 73

Cyclic Voltammetry Advanced

Run on channel : 1 (SN 5836)
User :
Electrode connection : standard
Ewe ctrl range : min = -10.00 V, max = 5.00 V
Ewe,I filtering : 50 kHz
Safety Limits :
	Do not start on E overload
Channel : Floating
Acquisition started on : 04/06/2022 16:19:01
Technique started on : 04/06/2022 16:19:12
Saved on :
	File : 2022-04-06 16_17_23 full set_01_02_CVA_DUSB0_C01.mpr
	Directory : C:\Users\Spectro Inlets Lab_1\Dropbox (Spectro Inlets)\Development\Data\Kenneth reduced data\2022-04-06 16_17_23 full set\
	Host : 192.168.1.105
Device : SP-200 (SN 0763)
Address : USB
EC-Lab for windows v11.27 (software)
Internet server v11.25 (firmware)
Command interpretor v11.27 (firmware)
Electrode material :
Initial state :
Electrolyte :
Comments :
Cable : standard
Electrode surface area : 0.001 cm²
Characteristic mass : 0.001 g
Equivalent Weight : 0.000 g/eq.
Density : 0.000 g/cm3
Record Ece
Text export
   Mode : Standard
   Time format : Elapsed
Cycle Definition : Charge/Discharge alternance
Ei (V)              0.000
vs.                 Eoc
ti (h:m:s)          0:00:5.0000
dti (s)             1.0000
dE/dt               50.000
dE/dt unit          mV/s
E1 (V)              1.500
vs.                 Ref
t1 (h:m:s)          0:00:0.0000
dt1 (s)             1.0000
Step percent        80
N                   20
E range min (V)     -10.000
E range max (V)     5.000
I Range             100 µA
I Range min         Unset
I Range max         Unset
I Range init        Unset
Bandwidth           1
E2 (V)              0.100
vs.                 Ref
t2 (h:m:s)          0:00:0.0000
dt2 (s)             1.0000
nc cycles           1
nr                  1
Reverse Scan        0
Ef (V)              0.000
vs.                 Eoc
tf (h:m:s)          0:00:0.0000
dtf (s)             0.1000

Number of loops : 1
Loop 0 from point number 0 to 864

mode	ox/red	error	control changes	Ns changes	counter inc.	time/s	control/V	Ewe/V	<I>/mA	cycle number	(Q-Qo)/C	I Range	<Ece>/V	P/W	Ewe-Ece/V
2	0	0	1	0	0	11.0502	0.591118	0.591687	-1.2741e-06	1	0.0000000E+000	41	1.30389	-7.53868e-10	-0.712208
2	1	0	1	0	0	16.4789	0.612261	0.612819	0.000494366	1	7.20817e-08	41	1.29437	3.02957e-07	-0.68155
2	1	0	0	0	0	17.5583	0.666227	0.666788	0.00100982	1	9.55447e-07	41	1.27521	6.73337e-07	-0.608426
2	1	0	1	0	0	18.6378	0.720201	0.720765	0.00191005	1	2.59807e-06	41	1.24145	1.37669e-06	-0.520689
2	1	0	0	0	0	19.7172	0.774173	0.77473	0.0030507	1	5.34674e-06	41	1.19321	2.36347e-06	-0.418478
2	1	0	1	0	0	20.7966	0.828145	0.828685	0.004598	1	9.49285e-06	41	1.12979	3.81029e-06	-0.301107
2	1	0	1	0	0	21.8761	0.882121	0.882717	0.00664345	1	1.56287e-05	41	1.05258	5.86429e-06	-0.16986
2	1	0	0	0	0	22.9555	0.936085	0.93668	0.00862661	1	2.39525e-05	41	0.977441	8.08038e-06	-0.0407613
2	1	0	1	0	0	24.035	0.990061	0.990654	0.0105547	1	3.43564e-05	41	0.904717	1.04561e-05	0.0859362
2	1	0	0	0	0	25.1144	1.04403	1.04462	0.012675	1	4.6955e-05	41	0.830082	1.32405e-05	0.214536
2	1	0	1	0	0	26.1938	1.098	1.09859	0.0146458	1	6.17717e-05	41	0.76077	1.60896e-05	0.337817
2	1	0	1	0	0	27.2733	1.15198	1.15253	0.0166805	1	7.87272e-05	41	0.693795	1.92248e-05	0.458732
2	1	0	0	0	0	28.3527	1.20594	1.20653	0.0188822	1	9.79749e-05	41	0.626901	2.27819e-05	0.579626
2	1	0	1	0	0	29.4322	1.25992	1.26051	0.0211951	1	0.000119674	41	0.560713	2.67167e-05	0.699798
2	1	0	0	0	0	30.5116	1.31389	1.31449	0.0235731	1	0.000143906	41	0.495958	3.09866e-05	0.818532
2	1	0	1	0	0	31.591	1.36787	1.36847	0.0258788	1	0.000170676	41	0.434801	3.54144e-05	0.933669
2	1	0	1	0	0	32.6705	1.42184	1.42241	0.0280912	1	0.000199876	41	0.37768	3.99573e-05	1.04473
2	1	0	0	0	0	33.75	1.47581	1.47641	0.0306715	1	0.000231605	41	0.317135	4.52838e-05	1.15928
2	1	0	1	0	0	34.6539	1.47881	1.47937	0.0175233	1	0.000256419	41	0.518544	2.59234e-05	0.960826
2	1	0	1	0	0	35.7334	1.42484	1.42539	0.00664947	1	0.000268071	41	0.70241	9.47811e-06	0.722983
2	1	0	1	0	0	36.8128	1.37086	1.37145	0.00311564	1	0.000272995	41	0.769265	4.27293e-06	0.602181
2	1	0	1	0	0	37.8922	1.31689	1.31747	0.00144341	1	0.000275298	41	0.805664	1.90165e-06	0.511811
2	1	0	1	0	0	38.9716	1.26292	1.26349	0.000459717	1	0.000276222	41	0.830667	5.8085e-07	0.432827
2	1	0	0	0	0	40.0511	1.20895	1.20953	-0.000268814	1	0.000276247	41	0.851584	-3.25139e-07	0.357946
2	0	0	0	0	0	41.1306	1.15498	1.15551	-0.000926657	1	0.000275539	41	0.871961	-1.07076e-06	0.283547
2	0	0	0	0	0	42.21	1.101	1.10154	-0.001654	1	0.000274096	41	0.894845	-1.82195e-06	0.206691
2	0	0	0	0	0	43.2894	1.04703	1.04758	-0.002608	1	0.000271762	41	0.923739	-2.73209e-06	0.123841
2	0	0	0	0	0	44.3688	0.993059	0.993624	-0.00400855	1	0.000268183	41	0.963652	-3.98299e-06	0.0299726
2	0	0	1	0	0	45.4483	0.939088	0.939651	-0.00625102	1	0.000262688	41	1.02291	-5.87378e-06	-0.0832621
2	0	0	1	0	0	46.5278	0.885115	0.885663	-0.0103142	1	0.000253909	41	1.12033	-9.1349e-06	-0.234662
2	0	0	1	0	0	47.6072	0.831143	0.831658	-0.0183091	1	0.000238844	41	1.29516	-1.52269e-05	-0.463499
2	0	0	1	0	0	48.6866	0.777171	0.777692	-0.0300403	1	0.000212567	41	1.55067	-2.33621e-05	-0.772975
2	0	0	0	0	0	49.7661	0.723194	0.723724	-0.0271331	1	0.000179449	41	1.58146	-1.96369e-05	-0.857731
2	0	0	0	0	0	50.8455	0.66923	0.669768	-0.0133124	1	0.000157988	41	1.40605	-8.91623e-06	-0.736278
2	0	0	0	0	0	51.925	0.615255	0.615795	-0.0063888	1	0.000147865	41	1.3115	-3.93419e-06	-0.6957
2	0	0	0	0	0	53.0044	0.561283	0.561775	-0.00358316	1	0.000142626	41	1.27182	-2.01293e-06	-0.710041
2	0	0	0	0	0	54.0838	0.507311	0.507785	-0.00240202	1	0.000139412	41	1.2548	-1.21971e-06	-0.74701
2	0	0	1	0	0	55.1633	0.453336	0.453843	-0.00195533	1	0.000137027	41	1.24922	-8.87412e-07	-0.795381
2	0	0	1	0	0	56.2427	0.39937	0.399886	-0.00199985	1	0.000134867	41	1.25284	-7.99713e-07	-0.852954
2	0	0	1	0	0	57.3222	0.345395	0.345899	-0.0030268	1	0.000132229	41	1.27671	-1.04697e-06	-0.930809
2	0	0	1	0	0	58.4016	0.291423	0.291932	-0.00636221	1	0.000127372	41	1.35061	-1.85733e-06	-1.05868
2	0	0	1	0	0	59.481	0.237451	0.237926	-0.0119599	1	0.000117402	41	1.48	-2.84557e-06	-1.24208
2	0	0	0	0	0	60.5605	0.183477	0.183977	-0.0144423	1	0.000103122	41	1.56541	-2.65705e-06	-1.38143
2	0	0	0	0	0	61.64	0.129507	0.130016	-0.0234794	1	8.3335e-05	41	1.77273	-3.0527e-06	-1.64272
2	1	0	0	0	1	62.5302	0.115114	0.115651	0.0127286	1	7.06441e-05	41	1.20501	1.47207e-06	-1.08936
2	1	0	1	0	1	63.6096	0.169086	0.169646	0.012003	1	8.52133e-05	41	1.07513	2.03625e-06	-0.905489
2	1	0	1	0	1	64.6891	0.223059	0.223575	0.0109311	1	9.71881e-05	41	1.00269	2.44392e-06	-0.779115
2	1	0	0	0	1	65.7686	0.27703	0.277598	0.00932652	1	0.000108685	41	0.960781	2.58903e-06	-0.683183
2	1	0	1	0	1	66.848	0.331002	0.331585	0.00483279	1	0.000116386	41	0.998063	1.60248e-06	-0.666479
2	1	0	0	0	1	67.9274	0.384974	0.385534	0.00224379	1	0.000119997	41	1.02827	8.65057e-07	-0.642737
2	1	0	1	0	1	69.0068	0.438946	0.439498	0.00161126	1	0.000122058	41	1.03334	7.08146e-07	-0.593842
2	1	0	1	0	1	70.0863	0.492917	0.493454	0.001516	1	0.000123805	41	1.02985	7.48076e-07	-0.5364
2	1	0	0	0	1	71.1658	0.54689	0.547438	0.00156027	1	0.000125537	41	1.02345	8.54149e-07	-0.476014
2	1	0	1	0	1	72.1192	0.594566	0.595146	0.00169211	2	0.000127148	41	1.01569	1.00705e-06	-0.420546
2	1	0	1	0	1	73.1987	0.648539	0.649092	0.00201678	2	0.000129206	41	1.00281	1.30908e-06	-0.353717
[...]
2	1	0	1	0	1	78.5959	0.918397	0.918993	0.00856208	2	0.000153243	41	0.816169	7.86849e-06	0.102824
2	1	0	0	0	1	79.6754	0.97237	0.972956	0.0104009	2	0.000163563	41	0.761433	1.01196e-05	0.211523
2	1	0	1	0	1	80.7548	1.02634	1.02692	0.0121227	2	0.000175787	41	0.70887	1.2449e-05	0.318046
2	1	0	0	0	1	81.8342	1.08031	1.08089	0.0135148	2	0.000189717	41	0.662869	1.46079e-05	0.418016
2	1	0	0	0	1	82.9137	1.13429	1.13485	0.0148685	2	0.000205083	41	0.619528	1.68735e-05	0.515324
2	1	0	1	0	1	83.9931	1.18826	1.18884	0.0163393	2	0.000221975	41	0.576441	1.94248e-05	0.612397
2	1	0	0	0	1	85.0726	1.24223	1.24283	0.0178801	2	0.000240498	41	0.534447	2.2222e-05	0.708385
2	1	0	1	0	1	86.152	1.2962	1.29679	0.0194272	2	0.000260699	41	0.494719	2.51931e-05	0.802076
2	1	0	0	0	1	87.2314	1.35017	1.35075	0.0208648	2	0.000282525	41	0.459319	2.81832e-05	0.891435
2	1	0	0	0	1	88.3109	1.40415	1.40473	0.0221415	2	0.000305803	41	0.428806	3.11029e-05	0.975924
2	1	0	1	0	1	89.3903	1.45811	1.4587	0.0236124	2	0.000330504	41	0.397261	3.44435e-05	1.06144
2	1	0	1	0	1	90.2883	1.49679	1.4974	0.0213782	2	0.000352351	41	0.427002	3.20117e-05	1.07039
2	1	0	1	0	1	91.3677	1.44283	1.44339	0.00585373	2	0.000364315	41	0.694787	8.44922e-06	0.748605
2	1	0	1	0	1	92.4472	1.38885	1.38943	0.00243896	2	0.000368407	41	0.766247	3.38876e-06	0.623182
2	1	0	1	0	1	93.5266	1.33488	1.33544	0.000992292	2	0.000370108	41	0.802602	1.32514e-06	0.532837
2	1	0	1	0	1	94.606	1.28091	1.28147	0.000135058	2	0.000370623	41	0.82764	1.73072e-07	0.453831
2	1	0	0	0	1	95.6855	1.22694	1.22749	-0.000505599	2	0.000370356	41	0.848396	-6.20618e-07	0.379094
2	0	0	0	0	1	96.7649	1.17297	1.17349	-0.0011025	2	0.000369433	41	0.868386	-1.29377e-06	0.3051
2	0	0	0	0	1	97.8444	1.11899	1.1195	-0.0017756	2	0.000367832	41	0.890408	-1.98779e-06	0.229094
2	0	0	0	0	1	98.9238	1.06502	1.06558	-0.0026701	2	0.0003654	41	0.917619	-2.84521e-06	0.14796
2	0	0	0	0	1	100.003	1.01105	1.01159	-0.00399196	2	0.000361795	41	0.95477	-4.03823e-06	0.0568212
2	0	0	1	0	1	101.083	0.957077	0.957619	-0.00610528	2	0.000356382	41	1.00954	-5.84653e-06	-0.0519174
2	0	0	1	0	1	102.162	0.903106	0.903673	-0.00987574	2	0.000347907	41	1.09852	-8.92444e-06	-0.194846
2	0	0	1	0	1	103.242	0.849134	0.849668	-0.017534	2	0.000333526	41	1.26261	-1.48981e-05	-0.41294
2	0	0	1	0	1	104.321	0.795162	0.795705	-0.0314752	2	0.000307397	41	1.54768	-2.5045e-05	-0.751977
2	0	0	1	0	1	105.4	0.74119	0.741717	-0.0349719	2	0.000268904	41	1.68416	-2.59392e-05	-0.942448
2	0	0	0	0	1	106.48	0.687218	0.68775	-0.0179906	2	0.000240184	41	1.46862	-1.2373e-05	-0.780872
2	0	0	0	0	1	107.559	0.633246	0.633789	-0.00818554	2	0.000226827	41	1.33123	-5.1879e-06	-0.697443
2	0	0	0	0	1	108.639	0.579274	0.579808	-0.00437271	2	0.000220293	41	1.27563	-2.53533e-06	-0.69582
2	0	0	0	0	1	109.718	0.525302	0.525792	-0.00278394	2	0.000216484	41	1.25135	-1.46377e-06	-0.725558
2	0	0	0	0	1	110.798	0.47133	0.471828	-0.00214602	2	0.000213805	41	1.24168	-1.01255e-06	-0.769847
2	0	0	1	0	1	111.877	0.417359	0.417855	-0.00202604	2	0.000211523	41	1.24129	-8.46589e-07	-0.823432
2	0	0	1	0	1	112.957	0.363385	0.363886	-0.00264168	2	0.00020904	41	1.25574	-9.61269e-07	-0.891858
2	0	0	1	0	1	114.036	0.309413	0.309924	-0.00539415	2	0.000204909	41	1.31437	-1.67178e-06	-1.00445
2	0	0	1	0	1	115.115	0.255441	0.255903	-0.0109969	2	0.000196157	41	1.4368	-2.81414e-06	-1.1809
2	0	0	0	0	1	116.195	0.201465	0.201904	-0.0135928	2	0.000182161	41	1.51899	-2.74445e-06	-1.31709
2	0	0	0	0	1	117.274	0.1475	0.147984	-0.0195778	2	0.000165169	41	1.65854	-2.89719e-06	-1.51056
2	0	0	0	0	1	118.221	0.0999719	0.100484	-0.0295598	2	0.00014162	41	1.87998	-2.97028e-06	-1.7795