Folder: ixdat-large-test-files/zilien_version_2/2022-09-19 11_31_19 test-3

Note: zilien_version_2/readme.md
- test-1: 1 experiment, 1 technique set  (CV+CP)
- test-2: 2 experiment, 1 technique set  (CV+CP)
- test-3: 1 experiment, 2 technique sets (CV, CP)

File: 2022-09-19 11_31_19 test-23_01_C01.mpt
EC-Lab ASCII FILE
Nb header lines : 63

Cyclic Voltammetry

Run on channel : 1 (SN 15565)
User :
Electrode connection : standard
Potential control : Ewe
Ewe ctrl range : min = -10,00 V, max = 10,00 V
Ewe,I filtering : <None>
Safety Limits :
	Do not start on E overload
Channel : Grounded
Acquisition started on : 09/19/2022 11:31:25.688
Technique started on : 09/19/2022 11:31:25.688
Loaded Setting File :  NONE
Saved on :
	File : 2022-09-19 11_31_19 test-23_01_C01.mpr
	Directory : C:\Users\Spectro\Spectro Inlets Dropbox\08 Development\Data\eclab-integration\2022-09-19 11_31_19 test-23\
	Host : 192.168.56.1
Device : SP-300 (SN 1920)
Address : USB
EC-Lab for windows v11.43 (software)
Internet server v11.40 (firmware)
Command interpretor v11.43 (firmware)
Electrode material :
Initial state :
Electrolyte :
Comments :
Cable : standard
Electrode surface area : 0,001 cm²
Characteristic mass : 0,001 g
Equivalent Weight : 0,000 g/eq.
Density : 0,000 g/cm3
Volume (V) : 0,001 cm³
Text export
   Mode : Standard
   Time format : Elapsed
Cycle Definition : Charge/Discharge alternance
Ei (V)              0,000
vs.                 Eoc
dE/dt               500,000
dE/dt unit          mV/s
E1 (V)              1,000
vs.                 Ref
Step percent        50
N                   10
E range min (V)     -10,000
E range max (V)     10,000
I Range             Auto
I Range min         Unset
I Range max         Unset
I Range init        Unset
Bandwidth           8
E2 (V)              -1,000
vs.                 Ref
nc cycles           0
Reverse Scan        1
Ef (V)              0,000
vs.                 Eoc

mode	ox/red	error	control changes	counter inc.	time/s	control/V	Ewe/V	<I>/mA	cycle number	(Q-Qo)/C	I Range	P/W
2	1	0	0	0	0,000000000000000E+000	4,4586502E-002	4,4827268E-002	9,413254447281361E-003	1,000000000000000E+000	0,0000000E+000	42	4,2197047E-007
2	1	0	1	0	1,403999964531977E-001	1,1475039E-001	1,1501745E-001	2,327782376863385E-002	1,000000000000000E+000	2,2623465E-006	41	2,6773560E-006
2	1	0	1	0	2,535999935935251E-001	1,7135462E-001	1,7159441E-001	3,446574984312378E-002	1,000000000000000E+000	5,5402948E-006	41	5,9141303E-006
2	1	0	1	0	3,667999907338526E-001	2,2795884E-001	2,2818251E-001	4,566195487568614E-002	1,000000000000000E+000	1,0084916E-005	41	1,0419260E-005
2	1	0	1	0	4,801999878691277E-001	2,8466299E-001	2,8490415E-001	5,686716915806789E-002	1,000000000000000E+000	1,5907148E-005	41	1,6201693E-005
2	1	0	1	0	5,933999850094551E-001	3,4126723E-001	3,4150842E-001	6,806287099704317E-002	1,000000000000000E+000	2,2986569E-005	41	2,3244043E-005
2	1	0	1	0	7,065999821497826E-001	3,9787143E-001	3,9813346E-001	7,925017136052120E-002	1,000000000000000E+000	3,1333097E-005	41	3,1552143E-005
2	1	0	1	0	8,199999792850576E-001	4,5457557E-001	4,5484596E-001	9,046128405025242E-002	1,000000000000000E+000	4,0964205E-005	41	4,1145951E-005
2	1	0	1	0	9,331999764253851E-001	5,1114655E-001	5,1141101E-001	1,016371973916346E-001	1,000000000000000E+000	5,1845876E-005	41	5,1978383E-005
2	1	0	1	0	1,076499972805323E+000	5,8280963E-001	5,8306193E-001	1,158767675013472E-001	1,000000000000000E+000	6,7398847E-005	40	6,7563335E-005
2	1	0	1	0	1,189799969943124E+000	6,3944721E-001	6,3964373E-001	1,270970669885476E-001	1,000000000000000E+000	8,1172337E-005	40	8,1296843E-005
2	1	0	1	0	1,302999967083451E+000	6,9605142E-001	6,9627035E-001	1,383074942976239E-001	1,000000000000000E+000	9,6201846E-005	40	9,6299409E-005
2	1	0	1	0	1,416399964218726E+000	7,5275552E-001	7,5305468E-001	1,494839203272326E-001	1,000000000000000E+000	1,1252812E-004	40	1,1256956E-004
2	1	0	1	0	1,529599961359054E+000	8,0935973E-001	8,0958480E-001	1,606699674739501E-001	1,000000000000000E+000	1,3009229E-004	40	1,3007596E-004
2	1	0	1	0	1,642799958499381E+000	8,6596406E-001	8,6623305E-001	1,718613169136614E-001	1,000000000000000E+000	1,4892343E-004	40	1,4887196E-004
2	1	0	1	0	1,756199955634656E+000	9,2266816E-001	9,2297131E-001	1,830677656126987E-001	1,000000000000000E+000	1,6905852E-004	40	1,6896629E-004
2	1	0	1	0	1,869399952774984E+000	9,7927237E-001	9,7951633E-001	1,942549533928595E-001	1,000000000000000E+000	1,9042414E-004	40	1,9027590E-004
2	1	0	1	0	1,974599950117408E+000	9,6827799E-001	9,6850795E-001	1,910029582174806E-001	1,000000000000000E+000	2,1093844E-004	40	1,8498788E-004
2	1	0	1	0	2,087999947252683E+000	9,1160727E-001	9,1184556E-001	1,798019846280418E-001	1,000000000000000E+000	2,3195404E-004	40	1,6395164E-004
2	1	0	1	0	2,201199944393011E+000	8,5500300E-001	8,5524487E-001	1,686222464350671E-001	1,000000000000000E+000	2,5166557E-004	40	1,4421331E-004
2	1	0	1	0	2,314399941533338E+000	7,9839879E-001	7,9868394E-001	1,574213800039922E-001	1,000000000000000E+000	2,7010962E-004	40	1,2572993E-004
2	1	0	1	0	2,427799938668613E+000	7,4169463E-001	7,4197567E-001	1,462171627169786E-001	1,000000000000000E+000	2,8731575E-004	40	1,0848958E-004
2	1	0	1	0	2,540999935808941E+000	6,8509042E-001	6,8535823E-001	1,350414268012781E-001	1,000000000000000E+000	3,0322562E-004	40	9,2551752E-005
2	1	0	1	0	2,654199932949268E+000	6,2848616E-001	6,2871736E-001	1,238308893477853E-001	1,000000000000000E+000	3,1786709E-004	40	7,7854631E-005
2	1	0	1	0	2,767599930084543E+000	5,7178199E-001	5,7210445E-001	1,126067516956635E-001	1,000000000000000E+000	3,3126448E-004	40	6,4422828E-005
2	1	0	1	0	2,880799927224871E+000	5,1517779E-001	5,1541907E-001	1,014403516863243E-001	1,000000000000000E+000	3,4337142E-004	40	5,2284293E-005
2	1	0	1	0	2,994199924360146E+000	4,5850685E-001	4,5874023E-001	9,022639802521282E-002	1,000000000000000E+000	3,5422971E-004	40	4,1390478E-005
2	1	0	1	0	3,107399921500473E+000	4,0190268E-001	4,0217096E-001	7,903281431645182E-002	1,000000000000000E+000	3,6380073E-004	40	3,1784701E-005
2	1	0	1	0	3,220599918640801E+000	3,4529850E-001	3,4553984E-001	6,784647858779258E-002	1,000000000000000E+000	3,7210499E-004	40	2,3443661E-005
2	1	0	1	0	3,333999915776076E+000	2,8859431E-001	2,8884202E-001	5,664357318213065E-002	1,000000000000000E+000	3,7915458E-004	40	1,6361044E-005
2	1	0	1	0	3,447199912916403E+000	2,3199008E-001	2,3226774E-001	4,546182683746652E-002	1,000000000000000E+000	3,8492412E-004	40	1,0559315E-005
2	1	0	1	0	3,590399909298867E+000	1,6039360E-001	1,6066442E-001	3,121836033630343E-002	1,000000000000000E+000	3,9046639E-004	41	5,0156800E-006
2	1	0	1	0	3,703799906434142E+000	1,0368943E-001	1,0390589E-001	2,000200696396248E-002	1,000000000000000E+000	3,9336170E-004	41	2,0783264E-006
2	1	0	1	0	3,816999903574470E+000	4,7085203E-002	4,7385566E-002	8,820993894308557E-003	1,000000000000000E+000	3,9498459E-004	41	4,1798779E-007
2	0	0	1	0	3,930199900714797E+000	-9,5190192E-003	-9,3466416E-003	-2,379360785653258E-003	1,000000000000000E+000	3,9534012E-004	41	2,2239032E-008
2	0	0	1	0	4,043599897850072E+000	-6,6212110E-002	-6,5954022E-002	-1,359715097278238E-002	1,000000000000000E+000	3,9442553E-004	41	8,9678679E-007
2	0	0	1	0	4,156799894990399E+000	-1,2279415E-001	-1,2256190E-001	-2,476649617892690E-002	1,000000000000000E+000	3,9224530E-004	41	3,0354288E-006
2	0	0	1	0	4,270199892125675E+000	-1,7949833E-001	-1,7927797E-001	-3,597883884697996E-002	1,000000000000000E+000	3,8879120E-004	41	6,4502133E-006
2	0	0	1	0	4,383399889266002E+000	-2,3610260E-001	-2,3590119E-001	-4,717388978315284E-002	1,000000000000000E+000	3,8407551E-004	41	1,1128377E-005
[...]
2	0	0	1	0	5,206399868475273E+000	-6,4759111E-001	-6,4736921E-001	-1,284245704611141E-001	1,000000000000000E+000	3,1176937E-004	40	8,3138111E-005
2	0	0	1	0	5,319599865615601E+000	-7,0419538E-001	-7,0395333E-001	-1,396298222457208E-001	1,000000000000000E+000	2,9658782E-004	40	9,8292876E-005
2	0	0	1	0	5,432799862755928E+000	-7,6079959E-001	-7,6059318E-001	-1,508171685913111E-001	1,000000000000000E+000	2,8013883E-004	40	1,1471051E-004
2	0	0	1	0	5,546199859891203E+000	-8,1750375E-001	-8,1731558E-001	-1,620259989266439E-001	1,000000000000000E+000	2,6239079E-004	40	1,3242637E-004
2	0	0	1	0	5,659399857031531E+000	-8,7410808E-001	-8,7390041E-001	-1,732153706465998E-001	1,000000000000000E+000	2,4340751E-004	40	1,5137298E-004
2	0	0	1	0	5,772599854171858E+000	-9,3071240E-001	-9,3050158E-001	-1,843763432077433E-001	1,000000000000000E+000	2,2315838E-004	40	1,7156248E-004
2	0	0	1	0	5,885999851307133E+000	-9,8741651E-001	-9,8726720E-001	-1,956179148789179E-001	1,000000000000000E+000	2,0160315E-004	40	1,9312715E-004
2	0	0	1	1	5,988199848725344E+000	-9,6142983E-001	-9,6118325E-001	-1,893682655529116E-001	1,000000000000000E+000	1,8176956E-004	40	1,8201761E-004
2	0	0	1	1	6,101599845860619E+000	-9,0472567E-001	-9,0454865E-001	-1,781894644528310E-001	1,000000000000000E+000	1,6093807E-004	40	1,6118104E-004
2	0	0	1	1	6,214799843000947E+000	-8,4815466E-001	-8,4796113E-001	-1,669761306955477E-001	1,000000000000000E+000	1,4141107E-004	40	1,4158926E-004
2	0	0	1	1	6,328199840136222E+000	-7,9145056E-001	-7,9125029E-001	-1,558142049936579E-001	1,000000000000000E+000	1,2311719E-004	40	1,2328803E-004
2	0	0	1	1	6,441399837276549E+000	-7,3484623E-001	-7,3467249E-001	-1,445982444662749E-001	1,000000000000000E+000	1,0612298E-004	40	1,0623235E-004
2	0	0	1	1	6,554599834416877E+000	-6,7824203E-001	-6,7802995E-001	-1,333826744230455E-001	1,000000000000000E+000	9,0396010E-005	40	9,0437446E-005
2	0	0	1	1	6,667999831552152E+000	-6,2153786E-001	-6,2130702E-001	-1,221993918472430E-001	1,000000000000000E+000	7,5912030E-005	40	7,5923337E-005
2	0	0	1	1	6,781199828692479E+000	-5,6493366E-001	-5,6473929E-001	-1,110271050245494E-001	1,000000000000000E+000	6,2719781E-005	40	6,2701365E-005
2	0	0	1	1	6,894399825832807E+000	-5,0832933E-001	-5,0812930E-001	-9,984783430118105E-002	1,000000000000000E+000	5,0794872E-005	40	5,0735609E-005
2	0	0	1	1	7,007799822968082E+000	-4,5162520E-001	-4,5137918E-001	-8,861978664644932E-002	1,000000000000000E+000	4,0119423E-005	40	4,0001127E-005
2	0	0	1	1	7,120999820108409E+000	-3,9505425E-001	-3,9488339E-001	-7,744380111495613E-002	1,000000000000000E+000	3,0729068E-005	40	3,0581272E-005
2	0	0	1	1	7,234399817243684E+000	-3,3835006E-001	-3,3811533E-001	-6,622609637464227E-002	1,000000000000000E+000	2,2592163E-005	40	2,2392058E-005
2	0	0	1	1	7,347599814384012E+000	-2,8174579E-001	-2,8147897E-001	-5,501538435637471E-002	1,000000000000000E+000	1,5738766E-005	40	1,5485673E-005
2	0	0	1	1	7,460799811524339E+000	-2,2514156E-001	-2,2493294E-001	-4,386072004660146E-002	1,000000000000000E+000	1,0151088E-005	40	9,8657210E-006
2	0	0	1	1	7,604199807901750E+000	-1,5344507E-001	-1,5323369E-001	-2,974984062214690E-002	1,000000000000000E+000	4,8298875E-006	41	4,5586780E-006
2	0	0	1	1	7,717399805042078E+000	-9,6840814E-002	-9,6597649E-002	-1,855651499960612E-002	1,000000000000000E+000	2,1052363E-006	41	1,7925157E-006
2	0	0	1	1	7,830599802182405E+000	-4,0236562E-002	-4,0048063E-002	-7,361039396710095E-003	1,000000000000000E+000	6,4647878E-007	41	2,9479537E-007
2	1	0	1	1	7,910999800151330E+000	5,7214929E-005	1,1606221E-004	5,750339478254318E-004	1,000000000000000E+000	3,7931065E-007	41	6,6739711E-011

File: 2022-09-19 11_31_19 test-23_02_C01.mpt
EC-Lab ASCII FILE
Nb header lines : 58

Chronopotentiometry

Run on channel : 1 (SN 15565)
User :
Electrode connection : standard
Potential control : Ewe
Ewe ctrl range : min = -10,00 V, max = 10,00 V
Ewe,I filtering : <None>
Safety Limits :
	Do not start on E overload
Channel : Grounded
Acquisition started on : 09/19/2022 11:32:03.956
Technique started on : 09/19/2022 11:32:04.456
Loaded Setting File :  NONE
Saved on :
	File : 2022-09-19 11_31_19 test-23_02_C01.mpr
	Directory : C:\Users\Spectro\Spectro Inlets Dropbox\08 Development\Data\eclab-integration\2022-09-19 11_31_19 test-23\
	Host : 192.168.56.1
Device : SP-300 (SN 1920)
Address : USB
EC-Lab for windows v11.43 (software)
Internet server v11.40 (firmware)
Command interpretor v11.43 (firmware)
Electrode material :
Initial state :
Electrolyte :
Comments :
Cable : standard
Electrode surface area : 0,001 cm²
Characteristic mass : 0,001 g
Equivalent Weight : 0,000 g/eq.
Density : 0,000 g/cm3
Volume (V) : 0,001 cm³
Text export
   Mode : Standard
   Time format : Elapsed
Cycle Definition : Charge/Discharge alternance
Is                  20,000
unit Is             µA
vs.                 <None>
ts (h:m:s)          0:00:15,0000
EM (V)              0,200
dQM                 83,333
unit dQM            nA.h
record              <Ewe>
dEs (mV)            0,00
dts (s)             0,5000
E range min (V)     -10,000
E range max (V)     10,000
I Range             100 µA
Bandwidth           8
goto Ns'            0
nc cycles           0

mode	ox/red	error	control changes	Ns changes	counter inc.	Ns	time/s	control/mA	<Ewe>/V	I/mA	dQ/C	(Q-Qo)/C	half cycle	Q charge/discharge/mA.h	I Range	Q discharge/mA.h	Q charge/mA.h	Capacity/mA.h	Efficiency/%	cycle number	P/W
1	1	0	0	0	0	0	4,999999873689376E-001	2,0000001E-002	9,9484339E-002	2,0014478E-002	9,0006279E-006	9,0006279E-006	0	2,500174475419852E-006	41	0,000000000000000E+000	2,500174475419852E-006	2,500174475419852E-006	0,0000000E+000	0,000000000000000E+000	1,9911272E-006
1	1	0	0	0	0	0	9,999999747378752E-001	2,0000001E-002	1,0126753E-001	2,0019058E-002	1,9005569E-005	1,9005569E-005	0	5,279324532383018E-006	41	0,000000000000000E+000	5,279324532383018E-006	5,279324532383018E-006	0,0000000E+000	0,000000000000000E+000	2,0272805E-006
1	1	0	0	0	0	0	1,499999962106813E+000	2,0000001E-002	1,0126988E-001	2,0003786E-002	2,9010642E-005	2,9010642E-005	0	8,058511818552182E-006	41	0,000000000000000E+000	8,058511818552182E-006	8,058511818552182E-006	0,0000000E+000	0,000000000000000E+000	2,0257810E-006
1	1	0	0	0	0	0	1,999999949475750E+000	2,0000001E-002	1,0126702E-001	2,0013332E-002	3,9015675E-005	3,9015675E-005	0	1,083768760806157E-005	41	0,000000000000000E+000	1,083768760806157E-005	1,083768760806157E-005	0,0000000E+000	0,000000000000000E+000	2,0266905E-006
1	1	0	0	0	0	0	2,499999936844688E+000	2,0000001E-002	0,0000000E+000	2,0013712E-002	4,9020713E-005	4,9020713E-005	0	1,361686479269217E-005	41	0,000000000000000E+000	1,361686479269217E-005	1,361686479269217E-005	0,0000000E+000	0,000000000000000E+000	2,0267150E-006
1	1	0	0	0	0	0	2,999999924213625E+000	2,0000001E-002	0,0000000E+000	2,0017531E-002	5,9026152E-005	5,9026152E-005	0	1,639615305896021E-005	41	0,000000000000000E+000	1,639615305896021E-005	1,639615305896021E-005	0,0000000E+000	0,000000000000000E+000	2,0271577E-006
1	1	0	0	0	0	0	3,499999911582563E+000	2,0000001E-002	0,0000000E+000	2,0013331E-002	6,9031652E-005	6,9031652E-005	0	1,917545846559935E-005	41	0,000000000000000E+000	1,917545846559935E-005	1,917545846559935E-005	0,0000000E+000	0,000000000000000E+000	2,0266898E-006
1	1	0	0	0	0	0	3,999999898951501E+000	2,0000001E-002	0,0000000E+000	2,0011039E-002	7,9037396E-005	7,9037396E-005	0	2,195483230768392E-005	41	0,000000000000000E+000	2,195483230768392E-005	2,195483230768392E-005	0,0000000E+000	0,000000000000000E+000	2,0265882E-006
1	1	0	0	0	0	0	4,499999886320438E+000	2,0000001E-002	0,0000000E+000	2,0007219E-002	8,9043569E-005	8,9043569E-005	0	2,473432428989973E-005	41	0,000000000000000E+000	2,473432428989973E-005	2,473432428989973E-005	0,0000000E+000	0,000000000000000E+000	2,0263137E-006
1	1	0	0	0	0	0	4,999999873689376E+000	2,0000001E-002	0,0000000E+000	2,0010276E-002	9,9049634E-005	9,9049634E-005	0	2,751378710247162E-005	41	0,000000000000000E+000	2,751378710247162E-005	2,751378710247162E-005	0,0000000E+000	0,000000000000000E+000	2,0266045E-006
1	1	0	0	0	0	0	5,499999861058313E+000	2,0000001E-002	0,0000000E+000	2,0013332E-002	1,0905551E-004	1,0905551E-004	0	3,029319704768972E-005	41	0,000000000000000E+000	3,029319704768972E-005	3,029319704768972E-005	0,0000000E+000	0,000000000000000E+000	2,0269526E-006
1	1	0	0	0	0	0	5,999999848427251E+000	2,0000001E-002	0,0000000E+000	2,0011421E-002	1,1906146E-004	1,1906146E-004	0	3,307262719070746E-005	41	0,000000000000000E+000	3,307262719070746E-005	3,307262719070746E-005	0,0000000E+000	0,000000000000000E+000	2,0267414E-006
1	1	0	0	0	0	0	6,499999835796189E+000	2,0000001E-002	0,0000000E+000	2,0000730E-002	1,2906746E-004	1,2906746E-004	0	3,585206936217016E-005	41	0,000000000000000E+000	3,585206936217016E-005	3,585206936217016E-005	0,0000000E+000	0,000000000000000E+000	2,0256589E-006
1	1	0	0	0	0	0	6,999999823165126E+000	2,0000001E-002	0,0000000E+000	2,0006839E-002	1,3907319E-004	1,3907319E-004	0	3,863144087056733E-005	41	0,000000000000000E+000	3,863144087056733E-005	3,863144087056733E-005	0,0000000E+000	0,000000000000000E+000	2,0262564E-006
1	1	0	0	0	0	0	7,499999810534064E+000	2,0000001E-002	0,0000000E+000	2,0003021E-002	1,4907893E-004	1,4907893E-004	0	4,141081237813665E-005	41	0,000000000000000E+000	4,141081237813665E-005	4,141081237813665E-005	0,0000000E+000	0,000000000000000E+000	2,0258201E-006
1	1	0	0	0	0	0	7,999999797903001E+000	2,0000001E-002	0,0000000E+000	2,0007219E-002	1,5908464E-004	1,5908464E-004	0	4,419017835158027E-005	41	0,000000000000000E+000	4,419017835158027E-005	4,419017835158027E-005	0,0000000E+000	0,000000000000000E+000	2,0262310E-006
1	1	0	0	0	0	0	8,499999785271939E+000	2,0000001E-002	0,0000000E+000	2,0012949E-002	1,6909026E-004	1,6909026E-004	0	4,696951583338281E-005	41	0,000000000000000E+000	4,696951583338281E-005	4,696951583338281E-005	0,0000000E+000	0,000000000000000E+000	2,0268378E-006
1	1	0	0	0	0	0	8,999999772640876E+000	2,0000001E-002	0,0000000E+000	2,0004548E-002	1,7909592E-004	1,7909592E-004	0	4,974886627888514E-005	41	0,000000000000000E+000	4,974886627888514E-005	4,974886627888514E-005	0,0000000E+000	0,000000000000000E+000	2,0259765E-006
1	1	0	0	0	0	0	9,499999760009814E+000	2,0000001E-002	0,0000000E+000	2,0010276E-002	1,8910167E-004	1,8910167E-004	0	5,252824351429525E-005	41	0,000000000000000E+000	5,252824351429525E-005	5,252824351429525E-005	0,0000000E+000	0,000000000000000E+000	2,0265143E-006
1	1	0	0	0	0	0	9,999999747378752E+000	2,0000001E-002	0,0000000E+000	2,0008748E-002	1,9910742E-004	1,9910742E-004	0	5,530761905666441E-005	41	0,000000000000000E+000	5,530761905666441E-005	5,530761905666441E-005	0,0000000E+000	0,000000000000000E+000	2,0263549E-006
1	1	0	0	0	0	0	1,049999973474769E+001	2,0000001E-002	0,0000000E+000	2,0009894E-002	2,0911290E-004	2,0911290E-004	0	5,808691813858847E-005	41	0,000000000000000E+000	5,808691813858847E-005	5,808691813858847E-005	0,0000000E+000	0,000000000000000E+000	2,0264183E-006
1	1	0	0	0	0	0	1,099999972211663E+001	2,0000001E-002	0,0000000E+000	2,0010276E-002	2,1911862E-004	2,1911862E-004	0	6,086628271225426E-005	41	0,000000000000000E+000	6,086628271225426E-005	6,086628271225426E-005	0,0000000E+000	0,000000000000000E+000	2,0264226E-006
1	1	0	0	0	0	0	1,149999970948556E+001	2,0000001E-002	0,0000000E+000	2,0007603E-002	2,2912450E-004	2,2912450E-004	0	6,364569700819750E-005	41	0,000000000000000E+000	6,364569700819750E-005	6,364569700819750E-005	0,0000000E+000	0,000000000000000E+000	2,0262025E-006
1	1	0	0	0	0	0	1,199999969685450E+001	2,0000001E-002	0,0000000E+000	2,0003403E-002	2,3913039E-004	2,3913039E-004	0	6,642510621177240E-005	41	0,000000000000000E+000	6,642510621177240E-005	6,642510621177240E-005	0,0000000E+000	0,000000000000000E+000	2,0257592E-006
1	1	0	0	0	0	0	1,249999968422344E+001	2,0000001E-002	0,0000000E+000	2,0011041E-002	2,4913624E-004	2,4913624E-004	0	6,920450975000859E-005	41	0,000000000000000E+000	6,920450975000859E-005	6,920450975000859E-005	0,0000000E+000	0,000000000000000E+000	2,0265329E-006
1	1	0	0	0	0	0	1,299999967159238E+001	2,0000001E-002	0,0000000E+000	2,0012185E-002	2,5914208E-004	2,5914208E-004	0	7,198390728597426E-005	41	0,000000000000000E+000	7,198390728597426E-005	7,198390728597426E-005	0,0000000E+000	0,000000000000000E+000	2,0266898E-006
1	1	0	0	0	0	0	1,349999965896131E+001	2,0000001E-002	0,0000000E+000	2,0010658E-002	2,6914795E-004	2,6914795E-004	0	7,476331604727440E-005	41	0,000000000000000E+000	7,476331604727440E-005	7,476331604727440E-005	0,0000000E+000	0,000000000000000E+000	2,0265932E-006
1	1	0	0	0	0	0	1,399999964633025E+001	2,0000001E-002	0,0000000E+000	2,0013331E-002	2,7915378E-004	2,7915378E-004	0	7,754271829645667E-005	41	0,000000000000000E+000	7,754271829645667E-005	7,754271829645667E-005	0,0000000E+000	0,000000000000000E+000	2,0268399E-006
1	1	0	0	0	0	0	1,449999963369919E+001	2,0000001E-002	0,0000000E+000	2,0010658E-002	2,8915965E-004	2,8915965E-004	0	8,032212711870671E-005	41	0,000000000000000E+000	8,032212711870671E-005	8,032212711870671E-005	0,0000000E+000	0,000000000000000E+000	2,0266141E-006
1	1	0	0	0	0	0	1,499999962106813E+001	2,0000001E-002	0,0000000E+000	2,0015242E-002	2,9916535E-004	2,9916535E-004	0	8,310148254647437E-005	41	0,000000000000000E+000	8,310148254647437E-005	8,310148254647437E-005	0,0000000E+000	0,000000000000000E+000	2,0270277E-006
1	1	0	0	0	0	0	1,505019961979997E+001	2,0000001E-002	0,0000000E+000	2,0014094E-002	3,0016995E-004	3,0016995E-004	0	8,338054368293120E-005	41	0,000000000000000E+000	8,338054368293120E-005	8,338054368293120E-005	0,0000000E+000	0,000000000000000E+000	2,0270388E-006