Folder: ixdat-large-test-files/zilien_version_2/2022-09-19 11_29_04 test-2

Note: zilien_version_2/readme.md
- test-1: 1 experiment, 1 technique set  (CV+CP)
- test-2: 2 experiment, 1 technique set  (CV+CP)
- test-3: 1 experiment, 2 technique sets (CV, CP)

File: 2022-09-19 11_29_04 test-22_01_01_CV_C01.mpt
EC-Lab ASCII FILE
Nb header lines : 63

Cyclic Voltammetry

Run on channel : 1 (SN 15565)
User :
Electrode connection : standard
Potential control : Ewe
Ewe ctrl range : min = -10,00 V, max = 10,00 V
Ewe,I filtering : <None>
Safety Limits :
	Do not start on E overload
Channel : Grounded
Acquisition started on : 09/19/2022 11:29:15.126
Technique started on : 09/19/2022 11:29:15.126
Loaded Setting File :  NONE
Saved on :
	File : 2022-09-19 11_29_04 test-22_01_01_CV_C01.mpr
	Directory : C:\Users\Spectro\Spectro Inlets Dropbox\08 Development\Data\eclab-integration\2022-09-19 11_29_04 test-22\
	Host : 192.168.56.1
Device : SP-300 (SN 1920)
Address : USB
EC-Lab for windows v11.43 (software)
Internet server v11.40 (firmware)
Command interpretor v11.43 (firmware)
Electrode material :
Initial state :
Electrolyte :
Comments :
Cable : standard
Electrode surface area : 0,001 cm²
Characteristic mass : 0,001 g
Equivalent Weight : 0,000 g/eq.
Density : 0,000 g/cm3
Volume (V) : 0,001 cm³
Text export
   Mode : Standard
   Time format : Elapsed
Cycle Definition : Charge/Discharge alternance
Ei (V)              0,000
vs.                 Eoc
dE/dt               500,000
dE/dt unit          mV/s
E1 (V)              1,000
vs.                 Ref
Step percent        50
N                   10
E range min (V)     -10,000
E range max (V)     10,000
I Range             Auto
I Range min         Unset
I Range max         Unset
I Range init        Unset
Bandwidth           8
E2 (V)              -1,000
vs.                 Ref
nc cycles           0
Reverse Scan        1
Ef (V)              0,000
vs.                 Eoc

mode	ox/red	error	control changes	counter inc.	time/s	control/V	Ewe/V	<I>/mA	cycle number	(Q-Qo)/C	I Range	P/W
2	1	0	1	0	0,000000000000000E+000	4,4586502E-002	4,4815823E-002	9,413445368409157E-003	1,000000000000000E+000	0,0000000E+000	42	4,2187131E-007
2	1	0	1	0	1,403999964531977E-001	1,1475039E-001	1,1501574E-001	2,328496720801931E-002	1,000000000000000E+000	2,2625775E-006	41	2,6781377E-006
2	1	0	1	0	2,535999935935251E-001	1,7135462E-001	1,7160788E-001	3,447209595906331E-002	1,000000000000000E+000	5,5409155E-006	41	5,9156832E-006
2	1	0	1	0	3,667999907338526E-001	2,2795884E-001	2,2823717E-001	4,566810765488016E-002	1,000000000000000E+000	1,0085890E-005	41	1,0423159E-005
2	1	0	1	0	4,801999878691277E-001	2,8466299E-001	2,8488997E-001	5,686724307403590E-002	1,000000000000000E+000	1,5908638E-005	41	1,6200907E-005
2	1	0	1	0	5,933999850094551E-001	3,4126723E-001	3,4151947E-001	6,806311535765430E-002	1,000000000000000E+000	2,2988643E-005	41	2,3244880E-005
2	1	0	1	0	7,065999821497826E-001	3,9787143E-001	3,9813304E-001	7,924886648640217E-002	1,000000000000000E+000	3,1335523E-005	41	3,1551594E-005
2	1	0	1	0	8,199999792850576E-001	4,5457557E-001	4,5483738E-001	9,046553515460554E-002	1,000000000000000E+000	4,0966996E-005	41	4,1147108E-005
2	1	0	1	0	9,331999764253851E-001	5,1114655E-001	5,1141012E-001	1,016405967850007E-001	1,000000000000000E+000	5,1849063E-005	41	5,1980031E-005
2	1	0	1	0	1,076499972805323E+000	5,8280963E-001	5,8308589E-001	1,159131119393040E-001	1,000000000000000E+000	6,7401867E-005	40	6,7587302E-005
2	1	0	1	0	1,189799969943124E+000	6,3944721E-001	6,3967007E-001	1,271020018223989E-001	1,000000000000000E+000	8,1176651E-005	40	8,1303348E-005
2	1	0	1	0	1,302999967083451E+000	6,9605142E-001	6,9630527E-001	1,383224441068406E-001	1,000000000000000E+000	9,6207688E-005	40	9,6314645E-005
2	1	0	1	0	1,416399964218726E+000	7,5275552E-001	7,5302720E-001	1,494923578982714E-001	1,000000000000000E+000	1,1253540E-004	40	1,1257181E-004
2	1	0	1	0	1,529599961359054E+000	8,0935973E-001	8,0958366E-001	1,606716841536884E-001	1,000000000000000E+000	1,3010085E-004	40	1,3007717E-004
2	1	0	1	0	1,642799958499381E+000	8,6596406E-001	8,6625350E-001	1,718742042935144E-001	1,000000000000000E+000	1,4893284E-004	40	1,4888663E-004
2	1	0	1	0	1,756199955634656E+000	9,2266816E-001	9,2295843E-001	1,830800669384192E-001	1,000000000000000E+000	1,6906892E-004	40	1,6897530E-004
2	1	0	1	0	1,869399952774984E+000	9,7927237E-001	9,7946769E-001	1,942613106220968E-001	1,000000000000000E+000	1,9043518E-004	40	1,9027268E-004
2	1	0	1	0	1,974599950117408E+000	9,6827799E-001	9,6852511E-001	1,910137712082360E-001	1,000000000000000E+000	2,1095065E-004	40	1,8500163E-004
2	1	0	1	0	2,087999947252683E+000	9,1160727E-001	9,1187727E-001	1,798216240150703E-001	1,000000000000000E+000	2,3196747E-004	40	1,6397526E-004
2	1	0	1	0	2,201199944393011E+000	8,5500300E-001	8,5524136E-001	1,686263780381219E-001	1,000000000000000E+000	2,5168009E-004	40	1,4421625E-004
2	1	0	1	0	2,314399941533338E+000	7,9839879E-001	7,9863453E-001	1,574164465729464E-001	1,000000000000000E+000	2,7012517E-004	40	1,2571822E-004
2	1	0	1	0	2,427799938668613E+000	7,4169463E-001	7,4196792E-001	1,462129943732486E-001	1,000000000000000E+000	2,8733310E-004	40	1,0848535E-004
2	1	0	1	0	2,540999935808941E+000	6,8509042E-001	6,8535525E-001	1,350183935874766E-001	1,000000000000000E+000	3,0324413E-004	40	9,2535563E-005
2	1	0	1	0	2,654199932949268E+000	6,2848616E-001	6,2870592E-001	1,238339739502408E-001	1,000000000000000E+000	3,1788734E-004	40	7,7855155E-005
2	1	0	1	0	2,767599930084543E+000	5,7178199E-001	5,7205403E-001	1,126189067959786E-001	1,000000000000000E+000	3,3128640E-004	40	6,4424101E-005
2	1	0	1	0	2,880799927224871E+000	5,1517779E-001	5,1540256E-001	1,014217002356116E-001	1,000000000000000E+000	3,4339432E-004	40	5,2273004E-005
2	1	0	1	0	2,994199924360146E+000	4,5850685E-001	4,5872957E-001	9,024106188541459E-002	1,000000000000000E+000	3,5425404E-004	40	4,1396244E-005
2	1	0	1	0	3,107399921500473E+000	4,0190268E-001	4,0217713E-001	7,906151577190054E-002	1,000000000000000E+000	3,6382634E-004	40	3,1796731E-005
2	1	0	1	0	3,220599918640801E+000	3,4529850E-001	3,4552738E-001	6,787133240238016E-002	1,000000000000000E+000	3,7213182E-004	40	2,3451405E-005
2	1	0	1	0	3,333999915776076E+000	2,8859431E-001	2,8881833E-001	5,664653123434038E-002	1,000000000000000E+000	3,7918219E-004	40	1,6360556E-005
2	1	0	1	0	3,447199912916403E+000	2,3199008E-001	2,3225196E-001	4,544887696489869E-002	1,000000000000000E+000	3,8495249E-004	40	1,0555591E-005
2	1	0	1	0	3,590399909298867E+000	1,6039360E-001	1,6066785E-001	3,121803063986595E-002	1,000000000000000E+000	3,9049477E-004	41	5,0157341E-006
2	1	0	1	0	3,703799906434142E+000	1,0368943E-001	1,0394550E-001	2,000131866006999E-002	1,000000000000000E+000	3,9339013E-004	41	2,0790471E-006
2	1	0	1	0	3,816999903574470E+000	4,7085203E-002	4,7389634E-002	8,816130723668436E-003	1,000000000000000E+000	3,9501296E-004	41	4,1779322E-007
2	0	0	1	0	3,930199900714797E+000	-9,5190192E-003	-9,3331635E-003	-2,380344046468957E-003	1,000000000000000E+000	3,9536870E-004	41	2,2216140E-008
2	0	0	1	0	4,043599897850072E+000	-6,6212110E-002	-6,6014215E-002	-1,360076599545818E-002	1,000000000000000E+000	3,9445423E-004	41	8,9784390E-007
2	0	0	1	0	4,156799894990399E+000	-1,2279415E-001	-1,2256241E-001	-2,476626177255337E-002	1,000000000000000E+000	3,9227415E-004	41	3,0354126E-006
2	0	0	1	0	4,270199892125675E+000	-1,7949833E-001	-1,7929998E-001	-3,598350996471700E-002	1,000000000000000E+000	3,8882004E-004	41	6,4518426E-006
2	0	0	1	0	4,383399889266002E+000	-2,3610260E-001	-2,3588124E-001	-4,717314469404910E-002	1,000000000000000E+000	3,8410458E-004	41	1,1127260E-005
[...]
2	0	0	1	0	5,206399868475273E+000	-6,4759111E-001	-6,4736730E-001	-1,284430475866729E-001	1,000000000000000E+000	3,1180130E-004	40	8,3149826E-005
2	0	0	1	0	5,319599865615601E+000	-7,0419538E-001	-7,0394433E-001	-1,396428343199659E-001	1,000000000000000E+000	2,9662141E-004	40	9,8300778E-005
2	0	0	1	0	5,432799862755928E+000	-7,6079959E-001	-7,6055968E-001	-1,508100150696312E-001	1,000000000000000E+000	2,8017341E-004	40	1,1470001E-004
2	0	0	1	0	5,546199859891203E+000	-8,1750375E-001	-8,1728715E-001	-1,620383414420452E-001	1,000000000000000E+000	2,6242642E-004	40	1,3243186E-004
2	0	0	1	0	5,659399857031531E+000	-8,7410808E-001	-8,7385654E-001	-1,732008617662357E-001	1,000000000000000E+000	2,4344475E-004	40	1,5135271E-004
2	0	0	1	0	5,772599854171858E+000	-9,3071240E-001	-9,3050236E-001	-1,843842328312650E-001	1,000000000000000E+000	2,2319736E-004	40	1,7156996E-004
2	0	0	1	0	5,885999851307133E+000	-9,8741651E-001	-9,8719609E-001	-1,955766116288333E-001	1,000000000000000E+000	2,0164408E-004	40	1,9307247E-004
2	0	0	1	1	5,988199848725344E+000	-9,6142983E-001	-9,6119684E-001	-1,893609064320723E-001	1,000000000000000E+000	1,8181180E-004	40	1,8201310E-004
2	0	0	1	1	6,101599845860619E+000	-9,0472567E-001	-9,0453428E-001	-1,781789732844730E-001	1,000000000000000E+000	1,6098212E-004	40	1,6116899E-004
2	0	0	1	1	6,214799843000947E+000	-8,4815466E-001	-8,4791988E-001	-1,669575525040270E-001	1,000000000000000E+000	1,4145710E-004	40	1,4156663E-004
2	0	0	1	1	6,328199840136222E+000	-7,9145056E-001	-7,9123783E-001	-1,558060953354772E-001	1,000000000000000E+000	1,2316529E-004	40	1,2327968E-004
2	0	0	1	1	6,441399837276549E+000	-7,3484623E-001	-7,3464888E-001	-1,445973027342302E-001	1,000000000000000E+000	1,0617283E-004	40	1,0622825E-004
2	0	0	1	1	6,554599834416877E+000	-6,7824203E-001	-6,7800713E-001	-1,333732588177856E-001	1,000000000000000E+000	9,0447051E-005	40	9,0428017E-005
2	0	0	1	1	6,667999831552152E+000	-6,2153786E-001	-6,2128150E-001	-1,221799849513140E-001	1,000000000000000E+000	7,5964461E-005	40	7,5908167E-005
2	0	0	1	1	6,781199828692479E+000	-5,6493366E-001	-5,6472385E-001	-1,110084871742096E-001	1,000000000000000E+000	6,2773746E-005	40	6,2689141E-005
2	0	0	1	1	6,894399825832807E+000	-5,0832933E-001	-5,0806528E-001	-9,978059413066820E-002	1,000000000000000E+000	5,0850242E-005	40	5,0695056E-005
2	0	0	1	1	7,007799822968082E+000	-4,5162520E-001	-4,5140117E-001	-8,859006895800126E-002	1,000000000000000E+000	4,0176485E-005	40	3,9989660E-005
2	0	0	1	1	7,120999820108409E+000	-3,9505425E-001	-3,9486709E-001	-7,743485447620824E-002	1,000000000000000E+000	3,0787993E-005	40	3,0576477E-005
2	0	0	1	1	7,234399817243684E+000	-3,3835006E-001	-3,3813909E-001	-6,621018177732652E-002	1,000000000000000E+000	2,2652548E-005	40	2,2388251E-005
2	0	0	1	1	7,347599814384012E+000	-2,8174579E-001	-2,8152028E-001	-5,499457445015021E-002	1,000000000000000E+000	1,5800608E-005	40	1,5482088E-005
2	0	0	1	1	7,460799811524339E+000	-2,2514156E-001	-2,2491151E-001	-4,382870629342500E-002	1,000000000000000E+000	1,0214965E-005	40	9,8575802E-006
2	0	0	1	1	7,604199807901750E+000	-1,5344507E-001	-1,5323167E-001	-2,974446454609267E-002	1,000000000000000E+000	4,8949296E-006	41	4,5577940E-006
2	0	0	1	1	7,717399805042078E+000	-9,6840814E-002	-9,6592508E-002	-1,855558106374994E-002	1,000000000000000E+000	2,1700057E-006	41	1,7923301E-006
2	0	0	1	1	7,830599802182405E+000	-4,0236562E-002	-4,0009666E-002	-7,367059615353343E-003	1,000000000000000E+000	7,1112032E-007	41	2,9475359E-007
2	1	0	1	1	7,911199800146278E+000	2,7594712E-004	4,7079191E-004	7,197567611001432E-004	1,000000000000000E+000	4,4393880E-007	41	3,3885567E-010

File: 2022-09-19 11_29_04 test-22_01_02_CP_C01.mpt
EC-Lab ASCII FILE
Nb header lines : 58

Chronopotentiometry

Run on channel : 1 (SN 15565)
User :
Electrode connection : standard
Potential control : Ewe
Ewe ctrl range : min = -10,00 V, max = 10,00 V
Ewe,I filtering : <None>
Safety Limits :
	Do not start on E overload
Channel : Grounded
Acquisition started on : 09/19/2022 11:29:15.126
Technique started on : 09/19/2022 11:29:23.537
Loaded Setting File :  NONE
Saved on :
	File : 2022-09-19 11_29_04 test-22_01_02_CP_C01.mpr
	Directory : C:\Users\Spectro\Spectro Inlets Dropbox\08 Development\Data\eclab-integration\2022-09-19 11_29_04 test-22\
	Host : 192.168.56.1
Device : SP-300 (SN 1920)
Address : USB
EC-Lab for windows v11.43 (software)
Internet server v11.40 (firmware)
Command interpretor v11.43 (firmware)
Electrode material :
Initial state :
Electrolyte :
Comments :
Cable : standard
Electrode surface area : 0,001 cm²
Characteristic mass : 0,001 g
Equivalent Weight : 0,000 g/eq.
Density : 0,000 g/cm3
Volume (V) : 0,001 cm³
Text export
   Mode : Standard
   Time format : Elapsed
Cycle Definition : Charge/Discharge alternance
Is                  20,000
unit Is             µA
vs.                 <None>
ts (h:m:s)          0:00:10,0000
EM (V)              0,200
dQM                 55,556
unit dQM            nA.h
record              <Ewe>
dEs (mV)            0,00
dts (s)             0,5000
E range min (V)     -10,000
E range max (V)     10,000
I Range             100 µA
Bandwidth           8
goto Ns'            0
nc cycles           0

mode	ox/red	error	control changes	Ns changes	counter inc.	Ns	time/s	control/mA	<Ewe>/V	I/mA	dQ/C	(Q-Qo)/C	half cycle	Q charge/discharge/mA.h	I Range	Q discharge/mA.h	Q charge/mA.h	Capacity/mA.h	Efficiency/%	cycle number	P/W
1	1	0	0	0	0	0	8,411199787515216E+000	2,0000001E-002	9,9256642E-002	2,0011803E-002	7,9653273E-006	7,9653273E-006	0	2,212590872206622E-006	41	0,000000000000000E+000	2,212590872206622E-006	2,212590872206622E-006	0,0000000E+000	0,000000000000000E+000	1,9863044E-006
1	1	0	0	0	0	0	8,911199774884153E+000	2,0000001E-002	1,0128228E-001	2,0014094E-002	1,7972583E-005	1,7972583E-005	0	4,992384071254896E-006	41	0,000000000000000E+000	4,992384071254896E-006	4,992384071254896E-006	0,0000000E+000	0,000000000000000E+000	2,0270732E-006
1	1	0	0	0	0	0	9,411199762253091E+000	2,0000001E-002	1,0128377E-001	2,0020587E-002	2,7979626E-005	2,7979626E-005	0	7,772118170538711E-006	41	0,000000000000000E+000	7,772118170538711E-006	7,772118170538711E-006	0,0000000E+000	0,000000000000000E+000	2,0277607E-006
1	1	0	0	0	0	0	9,911199749622028E+000	2,0000001E-002	1,0128112E-001	2,0011803E-002	3,7986360E-005	3,7986360E-005	0	1,055176703373177E-005	41	0,000000000000000E+000	1,055176703373177E-005	1,055176703373177E-005	0,0000000E+000	0,000000000000000E+000	2,0268178E-006
1	1	0	0	0	0	0	1,041119973699097E+001	2,0000001E-002	1,0127911E-001	2,0014096E-002	4,7993148E-005	4,7993148E-005	0	1,333142987255835E-005	41	0,000000000000000E+000	1,333142987255835E-005	1,333142987255835E-005	0,0000000E+000	0,000000000000000E+000	2,0270099E-006
1	1	0	0	0	0	0	1,091119972435990E+001	2,0000001E-002	1,0128137E-001	2,0015242E-002	5,8000012E-005	5,8000012E-005	0	1,611111469039072E-005	41	0,000000000000000E+000	1,611111469039072E-005	1,611111469039072E-005	0,0000000E+000	0,000000000000000E+000	2,0271711E-006
1	1	0	0	0	0	0	1,141119971172884E+001	2,0000001E-002	1,0127948E-001	2,0016767E-002	6,8006804E-005	6,8006804E-005	0	1,889077885035012E-005	41	0,000000000000000E+000	1,889077885035012E-005	1,889077885035012E-005	0,0000000E+000	0,000000000000000E+000	2,0272878E-006
1	1	0	0	0	0	0	1,191119969909778E+001	2,0000001E-002	1,0128523E-001	2,0007603E-002	7,8013625E-005	7,8013625E-005	0	2,167045140576859E-005	41	0,000000000000000E+000	2,167045140576859E-005	2,167045140576859E-005	0,0000000E+000	0,000000000000000E+000	2,0264747E-006
1	1	0	0	0	0	0	1,241119968646672E+001	2,0000001E-002	1,0128803E-001	2,0008367E-002	8,8020417E-005	8,8020417E-005	0	2,445011621775727E-005	41	0,000000000000000E+000	2,445011621775727E-005	2,445011621775727E-005	0,0000000E+000	0,000000000000000E+000	2,0266079E-006
1	1	0	0	0	0	0	1,291119967383565E+001	2,0000001E-002	1,0128809E-001	2,0009894E-002	9,8027114E-005	9,8027114E-005	0	2,722975436763631E-005	41	0,000000000000000E+000	2,722975436763631E-005	2,722975436763631E-005	0,0000000E+000	0,000000000000000E+000	2,0267639E-006
1	1	0	0	0	0	0	1,341119966120459E+001	2,0000001E-002	0,0000000E+000	2,0016385E-002	1,0803399E-004	1,0803399E-004	0	3,000943976019820E-005	41	0,000000000000000E+000	3,000943976019820E-005	3,000943976019820E-005	0,0000000E+000	0,000000000000000E+000	2,0273812E-006
1	1	0	0	0	0	0	1,391119964857353E+001	2,0000001E-002	0,0000000E+000	2,0004930E-002	1,1804081E-004	1,1804081E-004	0	3,278911248925659E-005	41	0,000000000000000E+000	3,278911248925659E-005	3,278911248925659E-005	0,0000000E+000	0,000000000000000E+000	2,0261846E-006
1	1	0	0	0	0	0	1,441119963594247E+001	2,0000001E-002	0,0000000E+000	2,0012567E-002	1,2804728E-004	1,2804728E-004	0	3,556868691049102E-005	41	0,000000000000000E+000	3,556868691049102E-005	3,556868691049102E-005	0,0000000E+000	0,000000000000000E+000	2,0269979E-006
1	1	0	0	0	0	0	1,491119962331140E+001	2,0000001E-002	0,0000000E+000	2,0016767E-002	1,3805405E-004	1,3805405E-004	0	3,834834879595372E-005	41	0,000000000000000E+000	3,834834879595372E-005	3,834834879595372E-005	0,0000000E+000	0,000000000000000E+000	2,0274144E-006
1	1	0	0	0	0	0	1,541119961068034E+001	2,0000001E-002	0,0000000E+000	2,0010658E-002	1,4806075E-004	1,4806075E-004	0	4,112798539631897E-005	41	0,000000000000000E+000	4,112798539631897E-005	4,112798539631897E-005	0,0000000E+000	0,000000000000000E+000	2,0268105E-006
1	1	0	0	0	0	0	1,591119959804928E+001	2,0000001E-002	0,0000000E+000	2,0016767E-002	1,5806779E-004	1,5806779E-004	0	4,390772063937038E-005	41	0,000000000000000E+000	4,390772063937038E-005	4,390772063937038E-005	0,0000000E+000	0,000000000000000E+000	2,0274115E-006
1	1	0	0	0	0	0	1,641119958541822E+001	2,0000001E-002	0,0000000E+000	2,0011421E-002	1,6807474E-004	1,6807474E-004	0	4,668742779518167E-005	41	0,000000000000000E+000	4,668742779518167E-005	4,668742779518167E-005	0,0000000E+000	0,000000000000000E+000	2,0268117E-006
1	1	0	0	0	0	0	1,691119957278715E+001	2,0000001E-002	0,0000000E+000	2,0017149E-002	1,7808173E-004	1,7808173E-004	0	4,946714729981290E-005	41	0,000000000000000E+000	4,946714729981290E-005	4,946714729981290E-005	0,0000000E+000	0,000000000000000E+000	2,0273476E-006
1	1	0	0	0	0	0	1,741119956015609E+001	2,0000001E-002	0,0000000E+000	2,0020204E-002	1,8808903E-004	1,8808903E-004	0	5,224695531144324E-005	41	0,000000000000000E+000	5,224695531144324E-005	5,224695531144324E-005	0,0000000E+000	0,000000000000000E+000	2,0277439E-006
1	1	0	0	0	0	0	1,791119954752503E+001	2,0000001E-002	0,0000000E+000	2,0015622E-002	1,9809663E-004	1,9809663E-004	0	5,502684077423894E-005	41	0,000000000000000E+000	5,502684077423894E-005	5,502684077423894E-005	0,0000000E+000	0,000000000000000E+000	2,0272630E-006
1	1	0	0	0	0	0	1,801319954494829E+001	2,0000001E-002	0,0000000E+000	2,0016767E-002	2,0013817E-004	2,0013817E-004	0	5,559393482624242E-005	41	0,000000000000000E+000	5,559393482624242E-005	5,559393482624242E-005	0,0000000E+000	0,000000000000000E+000	2,0272917E-006