Folder: ixdat-large-test-files/zilien_version_2/2022-09-19 11_27_59 test-1

Note: zilien_version_2/readme.md
- test-1: 1 experiment, 1 technique set  (CV+CP)
- test-2: 2 experiment, 1 technique set  (CV+CP)
- test-3: 1 experiment, 2 technique sets (CV, CP)

File: 2022-09-19 11_27_59 test-21_01_01_CV_C01.mpt
EC-Lab ASCII FILE
Nb header lines : 63

Cyclic Voltammetry

Run on channel : 1 (SN 15565)
User :
Electrode connection : standard
Potential control : Ewe
Ewe ctrl range : min = -10,00 V, max = 10,00 V
Ewe,I filtering : <None>
Safety Limits :
	Do not start on E overload
Channel : Grounded
Acquisition started on : 09/19/2022 11:28:15.894
Technique started on : 09/19/2022 11:28:15.894
Loaded Setting File :  NONE
Saved on :
	File : 2022-09-19 11_27_59 test-21_01_01_CV_C01.mpr
	Directory : C:\Users\Spectro\Spectro Inlets Dropbox\08 Development\Data\eclab-integration\2022-09-19 11_27_59 test-21\
	Host : 192.168.56.1
Device : SP-300 (SN 1920)
Address : USB
EC-Lab for windows v11.43 (software)
Internet server v11.40 (firmware)
Command interpretor v11.43 (firmware)
Electrode material :
Initial state :
Electrolyte :
Comments :
Cable : standard
Electrode surface area : 0,001 cm²
Characteristic mass : 0,001 g
Equivalent Weight : 0,000 g/eq.
Density : 0,000 g/cm3
Volume (V) : 0,001 cm³
Text export
   Mode : Standard
   Time format : Elapsed
Cycle Definition : Charge/Discharge alternance
Ei (V)              0,000
vs.                 Eoc
dE/dt               500,000
dE/dt unit          mV/s
E1 (V)              1,000
vs.                 Ref
Step percent        50
N                   10
E range min (V)     -10,000
E range max (V)     10,000
I Range             Auto
I Range min         Unset
I Range max         Unset
I Range init        Unset
Bandwidth           8
E2 (V)              -1,000
vs.                 Ref
nc cycles           0
Reverse Scan        1
Ef (V)              0,000
vs.                 Eoc

mode	ox/red	error	control changes	counter inc.	time/s	control/V	Ewe/V	<I>/mA	cycle number	(Q-Qo)/C	I Range	P/W
2	1	0	0	0	0,000000000000000E+000	4,4586502E-002	4,4815823E-002	9,416156448423862E-003	1,000000000000000E+000	0,0000000E+000	42	4,2199281E-007
2	1	0	1	0	1,403999964531977E-001	1,1475039E-001	1,1499037E-001	2,328349080247184E-002	1,000000000000000E+000	2,2624454E-006	41	2,6773771E-006
2	1	0	1	0	2,535999935935251E-001	1,7135462E-001	1,7162594E-001	3,447279421913363E-002	1,000000000000000E+000	5,5406276E-006	41	5,9164258E-006
2	1	0	1	0	3,667999907338526E-001	2,2795884E-001	2,2820362E-001	4,566307019849772E-002	1,000000000000000E+000	1,0085476E-005	41	1,0420478E-005
2	1	0	1	0	4,801999878691277E-001	2,8466299E-001	2,8491679E-001	5,687180478125814E-002	1,000000000000000E+000	1,5908030E-005	41	1,6203732E-005
2	1	0	1	0	5,933999850094551E-001	3,4126723E-001	3,4150067E-001	6,805536984757060E-002	1,000000000000000E+000	2,2987953E-005	41	2,3240955E-005
2	1	0	1	0	7,065999821497826E-001	3,9787143E-001	3,9816466E-001	7,925569415480527E-002	1,000000000000000E+000	3,1334814E-005	41	3,1556818E-005
2	1	0	1	0	8,199999792850576E-001	4,5457557E-001	4,5486206E-001	9,046916229805602E-002	1,000000000000000E+000	4,0966243E-005	41	4,1150990E-005
2	1	0	1	0	9,331999764253851E-001	5,1114655E-001	5,1141262E-001	1,016400842655764E-001	1,000000000000000E+000	5,1848274E-005	41	5,1980023E-005
2	1	0	1	0	1,076499972805323E+000	5,8280963E-001	5,8305645E-001	1,159156119041470E-001	1,000000000000000E+000	6,7401117E-005	40	6,7585344E-005
2	1	0	1	0	1,189799969943124E+000	6,3944721E-001	6,3970643E-001	1,270933408872224E-001	1,000000000000000E+000	8,1176942E-005	40	8,1302431E-005
2	1	0	1	0	1,302999967083451E+000	6,9605142E-001	6,9630414E-001	1,382933240383865E-001	1,000000000000000E+000	9,6208794E-005	40	9,6294214E-005
2	1	0	1	0	1,416399964218726E+000	7,5275552E-001	7,5301921E-001	1,495252801726261E-001	1,000000000000000E+000	1,1253719E-004	40	1,1259541E-004
2	1	0	1	0	1,529599961359054E+000	8,0935973E-001	8,0958349E-001	1,606844048365021E-001	1,000000000000000E+000	1,3010313E-004	40	1,3008744E-004
2	1	0	1	0	1,642799958499381E+000	8,6596406E-001	8,6624116E-001	1,718999488686679E-001	1,000000000000000E+000	1,4893674E-004	40	1,4890681E-004
2	1	0	1	0	1,756199955634656E+000	9,2266816E-001	9,2301011E-001	1,831119872416216E-001	1,000000000000000E+000	1,6907387E-004	40	1,6901421E-004
2	1	0	1	0	1,869399952774984E+000	9,7927237E-001	9,7951555E-001	1,942758456318803E-001	1,000000000000000E+000	1,9044139E-004	40	1,9029621E-004
2	1	0	1	0	1,974599950117408E+000	9,6827799E-001	9,6850324E-001	1,910161544665856E-001	1,000000000000000E+000	2,1095754E-004	40	1,8499976E-004
2	1	0	1	0	2,087999947252683E+000	9,1160727E-001	9,1188246E-001	1,798241352914678E-001	1,000000000000000E+000	2,3197528E-004	40	1,6397848E-004
2	1	0	1	0	2,201199944393011E+000	8,5500300E-001	8,5524571E-001	1,686270767124372E-001	1,000000000000000E+000	2,5168838E-004	40	1,4421759E-004
2	1	0	1	0	2,314399941533338E+000	7,9839879E-001	7,9866928E-001	1,574464253421564E-001	1,000000000000000E+000	2,7013413E-004	40	1,2574763E-004
2	1	0	1	0	2,427799938668613E+000	7,4169463E-001	7,4200618E-001	1,462382243985001E-001	1,000000000000000E+000	2,8734255E-004	40	1,0850967E-004
2	1	0	1	0	2,540999935808941E+000	6,8509042E-001	6,8538332E-001	1,350515472760896E-001	1,000000000000000E+000	3,0325470E-004	40	9,2562077E-005
2	1	0	1	0	2,654199932949268E+000	6,2848616E-001	6,2869859E-001	1,238293269649148E-001	1,000000000000000E+000	3,1789867E-004	40	7,7851320E-005
2	1	0	1	0	2,767599930084543E+000	5,7178199E-001	5,7207507E-001	1,126368525379799E-001	1,000000000000000E+000	3,3129842E-004	40	6,4436732E-005
2	1	0	1	0	2,880799927224871E+000	5,1517779E-001	5,1545000E-001	1,014565127261444E-001	1,000000000000000E+000	3,4340736E-004	40	5,2295760E-005
2	1	0	1	0	2,994199924360146E+000	4,5850685E-001	4,5873365E-001	9,024558620682610E-002	1,000000000000000E+000	3,5426795E-004	40	4,1398685E-005
2	1	0	1	0	3,107399921500473E+000	4,0190268E-001	4,0215400E-001	7,903920888687338E-002	1,000000000000000E+000	3,6384107E-004	40	3,1785934E-005
2	1	0	1	0	3,220599918640801E+000	3,4529850E-001	3,4553581E-001	6,785526244978735E-002	1,000000000000000E+000	3,7214762E-004	40	2,3446424E-005
2	1	0	1	0	3,333999915776076E+000	2,8859431E-001	2,8887454E-001	5,664834518587059E-002	1,000000000000000E+000	3,7919913E-004	40	1,6364265E-005
2	1	0	1	0	3,447199912916403E+000	2,3199008E-001	2,3225886E-001	4,546532682046134E-002	1,000000000000000E+000	3,8497048E-004	40	1,0559725E-005
2	1	0	1	0	3,590399909298867E+000	1,6039360E-001	1,6065329E-001	3,121725312424439E-002	1,000000000000000E+000	3,9051526E-004	41	5,0151543E-006
2	1	0	1	0	3,703799906434142E+000	1,0368943E-001	1,0397322E-001	2,001028317026795E-002	1,000000000000000E+000	3,9341082E-004	41	2,0805335E-006
2	1	0	1	0	3,816999903574470E+000	4,7085203E-002	4,7373746E-002	8,824194688349968E-003	1,000000000000000E+000	3,9503397E-004	41	4,1803514E-007
2	0	0	1	0	3,930199900714797E+000	-9,5190192E-003	-9,2957839E-003	-2,377025016085103E-003	1,000000000000000E+000	3,9539006E-004	41	2,2096311E-008
2	0	0	1	0	4,043599897850072E+000	-6,6212110E-002	-6,5980397E-002	-1,358972709737527E-002	1,000000000000000E+000	3,9447605E-004	41	8,9665559E-007
2	0	0	1	0	4,156799894990399E+000	-1,2279415E-001	-1,2256362E-001	-2,475901515329797E-002	1,000000000000000E+000	3,9229638E-004	41	3,0345545E-006
2	0	0	1	0	4,270199892125675E+000	-1,7949833E-001	-1,7927462E-001	-3,597756922245021E-002	1,000000000000000E+000	3,8884275E-004	41	6,4498649E-006
2	0	0	1	0	4,383399889266002E+000	-2,3610260E-001	-2,3590398E-001	-4,717155677402229E-002	1,000000000000000E+000	3,8412760E-004	41	1,1127958E-005
[...]
2	0	0	1	0	5,206399868475273E+000	-6,4759111E-001	-6,4738649E-001	-1,284265944695411E-001	1,000000000000000E+000	3,1182900E-004	40	8,3141640E-005
2	0	0	1	0	5,319599865615601E+000	-7,0419538E-001	-7,0397055E-001	-1,396129539120006E-001	1,000000000000000E+000	2,9665153E-004	40	9,8283410E-005
2	0	0	1	0	5,432799862755928E+000	-7,6079959E-001	-7,6057559E-001	-1,507844896579622E-001	1,000000000000000E+000	2,8020609E-004	40	1,1468300E-004
2	0	0	1	0	5,546199859891203E+000	-8,1750375E-001	-8,1730288E-001	-1,620063964568543E-001	1,000000000000000E+000	2,6246181E-004	40	1,3240830E-004
2	0	0	1	0	5,659399857031531E+000	-8,7410808E-001	-8,7390029E-001	-1,731767498829860E-001	1,000000000000000E+000	2,4348218E-004	40	1,5133922E-004
2	0	0	1	0	5,772599854171858E+000	-9,3071240E-001	-9,3047601E-001	-1,843428673979357E-001	1,000000000000000E+000	2,2323697E-004	40	1,7152661E-004
2	0	0	1	0	5,885999851307133E+000	-9,8741651E-001	-9,8720306E-001	-1,955673533103736E-001	1,000000000000000E+000	2,0168566E-004	40	1,9306468E-004
2	0	0	1	1	5,988199848725344E+000	-9,6142983E-001	-9,6117431E-001	-1,893529465751880E-001	1,000000000000000E+000	1,8185559E-004	40	1,8200118E-004
2	0	0	1	1	6,101599845860619E+000	-9,0472567E-001	-9,0455836E-001	-1,781660528368461E-001	1,000000000000000E+000	1,6102821E-004	40	1,6116159E-004
2	0	0	1	1	6,214799843000947E+000	-8,4815466E-001	-8,4792364E-001	-1,669458284314408E-001	1,000000000000000E+000	1,4150534E-004	40	1,4155732E-004
2	0	0	1	1	6,328199840136222E+000	-7,9145056E-001	-7,9122585E-001	-1,557698443240954E-001	1,000000000000000E+000	1,2321584E-004	40	1,2324913E-004
2	0	0	1	1	6,441399837276549E+000	-7,3484623E-001	-7,3468816E-001	-1,445866679442888E-001	1,000000000000000E+000	1,0622599E-004	40	1,0622611E-004
2	0	0	1	1	6,554599834416877E+000	-6,7824203E-001	-6,7796236E-001	-1,333569589633646E-001	1,000000000000000E+000	9,0503148E-005	40	9,0410998E-005
2	0	0	1	1	6,667999831552152E+000	-6,2153786E-001	-6,2133723E-001	-1,221916334625957E-001	1,000000000000000E+000	7,6022690E-005	40	7,5922209E-005
2	0	0	1	1	6,781199828692479E+000	-5,6493366E-001	-5,6469756E-001	-1,109899647204046E-001	1,000000000000000E+000	6,2834763E-005	40	6,2675761E-005
2	0	0	1	1	6,894399825832807E+000	-5,0832933E-001	-5,0809634E-001	-9,977210050080076E-002	1,000000000000000E+000	5,0913415E-005	40	5,0693838E-005
2	0	0	1	1	7,007799822968082E+000	-4,5162520E-001	-4,5138097E-001	-8,858316271895683E-002	1,000000000000000E+000	4,0241877E-005	40	3,9984752E-005
2	0	0	1	1	7,120999820108409E+000	-3,9505425E-001	-3,9487195E-001	-7,740908271322644E-002	1,000000000000000E+000	3,0855281E-005	40	3,0566676E-005
2	0	0	1	1	7,234399817243684E+000	-3,3835006E-001	-3,3812085E-001	-6,619268069237760E-002	1,000000000000000E+000	2,2721706E-005	40	2,2381126E-005
2	0	0	1	1	7,347599814384012E+000	-2,8174579E-001	-2,8149125E-001	-5,499218932236538E-002	1,000000000000000E+000	1,5871801E-005	40	1,5479820E-005
2	0	0	1	1	7,460799811524339E+000	-2,2514156E-001	-2,2488636E-001	-4,382514033592688E-002	1,000000000000000E+000	1,0287295E-005	40	9,8556766E-006
2	0	0	1	1	7,604199807901750E+000	-1,5344507E-001	-1,5323395E-001	-2,974940723215697E-002	1,000000000000000E+000	4,9689879E-006	41	4,5586189E-006
2	0	0	1	1	7,717399805042078E+000	-9,6840814E-002	-9,6612781E-002	-1,855128212167373E-002	1,000000000000000E+000	2,2446841E-006	41	1,7922910E-006
2	0	0	1	1	7,830599802182405E+000	-4,0236562E-002	-4,0012460E-002	-7,361523069266684E-003	1,000000000000000E+000	7,8632326E-007	41	2,9455265E-007
2	1	0	1	1	7,910999800151330E+000	5,7214929E-005	2,3430548E-004	5,771341675426811E-004	1,000000000000000E+000	5,1942925E-007	41	1,3522569E-010

File: 2022-09-19 11_27_59 test-21_01_02_CP_C01.mpt
EC-Lab ASCII FILE
Nb header lines : 58

Chronopotentiometry

Run on channel : 1 (SN 15565)
User :
Electrode connection : standard
Potential control : Ewe
Ewe ctrl range : min = -10,00 V, max = 10,00 V
Ewe,I filtering : <None>
Safety Limits :
	Do not start on E overload
Channel : Grounded
Acquisition started on : 09/19/2022 11:28:15.894
Technique started on : 09/19/2022 11:28:24.305
Loaded Setting File :  NONE
Saved on :
	File : 2022-09-19 11_27_59 test-21_01_02_CP_C01.mpr
	Directory : C:\Users\Spectro\Spectro Inlets Dropbox\08 Development\Data\eclab-integration\2022-09-19 11_27_59 test-21\
	Host : 192.168.56.1
Device : SP-300 (SN 1920)
Address : USB
EC-Lab for windows v11.43 (software)
Internet server v11.40 (firmware)
Command interpretor v11.43 (firmware)
Electrode material :
Initial state :
Electrolyte :
Comments :
Cable : standard
Electrode surface area : 0,001 cm²
Characteristic mass : 0,001 g
Equivalent Weight : 0,000 g/eq.
Density : 0,000 g/cm3
Volume (V) : 0,001 cm³
Text export
   Mode : Standard
   Time format : Elapsed
Cycle Definition : Charge/Discharge alternance
Is                  20,000
unit Is             µA
vs.                 <None>
ts (h:m:s)          0:00:10,0000
EM (V)              0,200
dQM                 55,556
unit dQM            nA.h
record              <Ewe>
dEs (mV)            0,00
dts (s)             0,5000
E range min (V)     -10,000
E range max (V)     10,000
I Range             100 µA
Bandwidth           8
goto Ns'            0
nc cycles           0

mode	ox/red	error	control changes	Ns changes	counter inc.	Ns	time/s	control/mA	<Ewe>/V	I/mA	dQ/C	(Q-Qo)/C	half cycle	Q charge/discharge/mA.h	I Range	Q discharge/mA.h	Q charge/mA.h	Capacity/mA.h	Efficiency/%	cycle number	P/W
1	1	0	0	0	0	0	8,410999787520268E+000	2,0000001E-002	9,9239662E-002	2,0012949E-002	7,9656056E-006	7,9656056E-006	0	2,212668305469884E-006	41	0,000000000000000E+000	2,212668305469884E-006	2,212668305469884E-006	0,0000000E+000	0,000000000000000E+000	1,9860784E-006
1	1	0	0	0	0	0	8,910999774889206E+000	2,0000001E-002	1,0126146E-001	2,0004930E-002	1,7972639E-005	1,7972639E-005	0	4,992399735893640E-006	41	0,000000000000000E+000	4,992399735893640E-006	4,992399735893640E-006	0,0000000E+000	0,000000000000000E+000	2,0257285E-006
1	1	0	0	0	0	0	9,410999762258143E+000	2,0000001E-002	1,0126092E-001	2,0014858E-002	2,7979593E-005	2,7979593E-005	0	7,772109291516244E-006	41	0,000000000000000E+000	7,772109291516244E-006	7,772109291516244E-006	0,0000000E+000	0,000000000000000E+000	2,0267228E-006
1	1	0	0	0	0	0	9,910999749627081E+000	2,0000001E-002	1,0126487E-001	2,0001493E-002	3,7986705E-005	3,7986705E-005	0	1,055186216574576E-005	41	0,000000000000000E+000	1,055186216574576E-005	1,055186216574576E-005	0,0000000E+000	0,000000000000000E+000	2,0254486E-006
1	1	0	0	0	0	0	1,041099973699602E+001	2,0000001E-002	1,0126314E-001	2,0018676E-002	4,7993926E-005	4,7993926E-005	0	1,333164615908431E-005	41	0,000000000000000E+000	1,333164615908431E-005	1,333164615908431E-005	0,0000000E+000	0,000000000000000E+000	2,0271539E-006
1	1	0	0	0	0	0	1,091099972436496E+001	2,0000001E-002	1,0126595E-001	2,0016385E-002	5,8001118E-005	5,8001118E-005	0	1,611142155952338E-005	41	0,000000000000000E+000	1,611142155952338E-005	1,611142155952338E-005	0,0000000E+000	0,000000000000000E+000	2,0269783E-006
1	1	0	0	0	0	0	1,141099971173389E+001	2,0000001E-002	1,0126489E-001	2,0018294E-002	6,8007786E-005	6,8007786E-005	0	1,889105137354798E-005	41	0,000000000000000E+000	1,889105137354798E-005	1,889105137354798E-005	0,0000000E+000	0,000000000000000E+000	2,0271502E-006
1	1	0	0	0	0	0	1,191099969910283E+001	2,0000001E-002	1,0126085E-001	2,0010276E-002	7,8014018E-005	7,8014018E-005	0	2,167056157978045E-005	41	0,000000000000000E+000	2,167056157978045E-005	2,167056157978045E-005	0,0000000E+000	0,000000000000000E+000	2,0262576E-006
1	1	0	0	0	0	0	1,241099968647177E+001	2,0000001E-002	1,0125528E-001	2,0018294E-002	8,8020228E-005	8,8020228E-005	0	2,445006359585871E-005	41	0,000000000000000E+000	2,445006359585871E-005	2,445006359585871E-005	0,0000000E+000	0,000000000000000E+000	2,0269581E-006
1	1	0	0	0	0	0	1,291099967384071E+001	2,0000001E-002	1,0125357E-001	2,0015622E-002	9,8026314E-005	9,8026314E-005	0	2,722953124592702E-005	41	0,000000000000000E+000	2,722953124592702E-005	2,722953124592702E-005	0,0000000E+000	0,000000000000000E+000	2,0266532E-006
1	1	0	0	0	0	0	1,341099966120964E+001	2,0000001E-002	1,0125977E-001	2,0011039E-002	1,0803262E-004	1,0803262E-004	0	3,000906069431868E-005	41	0,000000000000000E+000	3,000906069431868E-005	3,000906069431868E-005	0,0000000E+000	0,000000000000000E+000	2,0263133E-006
1	1	0	0	0	0	0	1,391099964857858E+001	2,0000001E-002	0,0000000E+000	2,0017149E-002	1,1803871E-004	1,1803871E-004	0	3,278853133962386E-005	41	0,000000000000000E+000	3,278853133962386E-005	3,278853133962386E-005	0,0000000E+000	0,000000000000000E+000	2,0269149E-006
1	1	0	0	0	0	0	1,441099963594752E+001	2,0000001E-002	0,0000000E+000	2,0009130E-002	1,2804502E-004	1,2804502E-004	0	3,556806129527588E-005	41	0,000000000000000E+000	3,556806129527588E-005	3,556806129527588E-005	0,0000000E+000	0,000000000000000E+000	2,0261241E-006
1	1	0	0	0	0	0	1,491099962331646E+001	2,0000001E-002	0,0000000E+000	2,0014478E-002	1,3805121E-004	1,3805121E-004	0	3,834755819766886E-005	41	0,000000000000000E+000	3,834755819766886E-005	3,834755819766886E-005	0,0000000E+000	0,000000000000000E+000	2,0265859E-006
1	1	0	0	0	0	0	1,541099961068539E+001	2,0000001E-002	0,0000000E+000	2,0014478E-002	1,4805738E-004	1,4805738E-004	0	4,112705157676505E-005	41	0,000000000000000E+000	4,112705157676505E-005	4,112705157676505E-005	0,0000000E+000	0,000000000000000E+000	2,0265779E-006
1	1	0	0	0	0	0	1,591099959805433E+001	2,0000001E-002	0,0000000E+000	2,0014478E-002	1,5806335E-004	1,5806335E-004	0	4,390648570998261E-005	41	0,000000000000000E+000	4,390648570998261E-005	4,390648570998261E-005	0,0000000E+000	0,000000000000000E+000	2,0265634E-006
1	1	0	0	0	0	0	1,641099958542327E+001	2,0000001E-002	0,0000000E+000	2,0010276E-002	1,6806959E-004	1,6806959E-004	0	4,668599699613535E-005	41	0,000000000000000E+000	4,668599699613535E-005	4,668599699613535E-005	0,0000000E+000	0,000000000000000E+000	2,0262116E-006
1	1	0	0	0	0	0	1,691099957279221E+001	2,0000001E-002	0,0000000E+000	2,0012567E-002	1,7807586E-004	1,7807586E-004	0	4,946551640828450E-005	41	0,000000000000000E+000	4,946551640828450E-005	4,946551640828450E-005	0,0000000E+000	0,000000000000000E+000	2,0264367E-006
1	1	0	0	0	0	0	1,741099956016114E+001	2,0000001E-002	0,0000000E+000	2,0012949E-002	1,8808189E-004	1,8808189E-004	0	5,224497023100654E-005	41	0,000000000000000E+000	5,224497023100654E-005	5,224497023100654E-005	0,0000000E+000	0,000000000000000E+000	2,0264981E-006
1	1	0	0	0	0	0	1,791099954753008E+001	2,0000001E-002	0,0000000E+000	2,0004166E-002	1,9808802E-004	1,9808802E-004	0	5,502444974032955E-005	41	0,000000000000000E+000	5,502444974032955E-005	5,502444974032955E-005	0,0000000E+000	0,000000000000000E+000	2,0256948E-006
1	1	0	0	0	0	0	1,801299954495335E+001	2,0000001E-002	0,0000000E+000	2,0015242E-002	2,0012932E-004	2,0012932E-004	0	5,559147847423123E-005	41	0,000000000000000E+000	5,559147847423123E-005	5,559147847423123E-005	0,0000000E+000	0,000000000000000E+000	2,0268612E-006