Folder: ixdat-large-test-files/failing_datasets/2024-01-17 15_21_57 ec-included

Note: failing_datasets/README.md
- 2024-01-17 15\_06\_41 no-ec-nonincluded -- No EC measurement ran and EC was not included in the settings dialog. Ok MS dataset.
- 2024-01-17 15\_08\_29 no-ec-included -- No EC measurement ran, but EC was included in the settings dialog. Due to an internal bug in Zilien, it included a "pot" series filled with NaN.
- 2024-01-17 15\_13\_45 ec-included-mpt-missing -- EC measurement ran, but .mpt files were not generated. Thus there is an EC-lab series header, but the series are missing.
- 2024-01-17 15\_21\_57 ec-included -- OK EC-MS dataset.

File: 2024-01-17 15_21_57 ec-included_01_C01.mpt
EC-Lab ASCII FILE
Nb header lines : 64

Cyclic Voltammetry

Run on channel : 1 (SN 5836)
User :
Electrode connection : standard
Potential control : Ewe
Ewe ctrl range : min = -2,50 V, max = 2,50 V
Ewe,I filtering : 50 kHz
Safety Limits :
	Do not start on E overload
Channel : Grounded
Acquisition started on : 01/17/2024 15:22:05.748
Technique started on : 01/17/2024 15:22:05.748
Loaded Setting File :  NONE
Saved on :
	File : 2024-01-17 15_21_57 ec-included_01_C01.mpr
	Directory : C:\Users\Spectro Inlets\Spectro Inlets Dropbox\03 LGA\In-line MS\Chip testing on EC-MS setup\failing_datasets\2024-01-17 15_21_57 ec-included\
	Host : 192.168.1.105
Device : SP-200 (SN 0763)
Address : USB
EC-Lab for windows v11.43 (software)
Internet server v11.40 (firmware)
Command interpretor v11.43 (firmware)
Electrode material :
Initial state :
Electrolyte :
Comments :
Cable : standard
Reference electrode : SCE Saturated Calomel Electrode (0,241 V)
Electrode surface area : 0,001 cm²
Characteristic mass : 0,001 g
Equivalent Weight : 0,000 g/eq.
Density : 0,000 g/cm3
Volume (V) : 0,001 cm³
Text export
   Mode : Standard
   Time format : Elapsed
Cycle Definition : Charge/Discharge alternance
Ei (V)              0,000
vs.                 Eoc
dE/dt               20,000
dE/dt unit          mV/s
E1 (V)              1,000
vs.                 Ref
Step percent        50
N                   10
E range min (V)     -2,500
E range max (V)     2,500
I Range             Auto
I Range min         Unset
I Range max         Unset
I Range init        Unset
Bandwidth           8
E2 (V)              -1,000
vs.                 Ref
nc cycles           0
Reverse Scan        1
Ef (V)              0,000
vs.                 Eoc

mode	ox/red	error	control changes	counter inc.	time/s	control/V	Ewe/V	<I>/mA	cycle number	(Q-Qo)/C	I Range	P/W
2	0	0	1	0	0,000000000000000E+000	-2,0176152E-004	-1,7848902E-004	-1,088311728381086E-005	1,000000000000000E+000	0,0000000E+000	44	1,9425169E-012
2	1	0	1	0	3,573999909713166E-001	6,9432207E-003	7,0039402E-003	1,418176852199332E-003	1,000000000000000E+000	2,6194917E-007	42	9,9328261E-009
2	1	0	1	0	7,072999821320991E-001	1,3940956E-002	1,4001740E-002	2,794912423403871E-003	1,000000000000000E+000	1,0061192E-006	42	3,9133639E-008
2	1	0	1	0	1,057099973295408E+000	2,0937355E-002	2,1024467E-002	4,172396453213864E-003	1,000000000000000E+000	2,2320173E-006	42	8,7722412E-008
2	1	0	1	0	1,406899964458717E+000	2,7933754E-002	2,7985429E-002	5,546022380089943E-003	1,000000000000000E+000	3,9388228E-006	42	1,5520781E-007
2	1	0	1	0	1,756699955622025E+000	3,4930151E-002	3,5003062E-002	6,922120266136977E-003	1,000000000000000E+000	6,1270503E-006	42	2,4229541E-007
2	1	0	1	0	2,106499946785334E+000	4,1926548E-002	4,1975066E-002	8,298055248343626E-003	1,000000000000000E+000	8,7964027E-006	42	3,4831143E-007
2	1	0	1	0	2,456299937948643E+000	4,8922949E-002	4,8993763E-002	9,674486751599199E-003	1,000000000000000E+000	1,1947243E-005	42	4,7398950E-007
2	1	0	1	0	2,821099928733020E+000	5,6219190E-002	5,6306113E-002	1,111509536054429E-002	1,000000000000000E+000	1,5746931E-005	42	6,2584780E-007
2	1	0	1	0	3,185899919517396E+000	6,3515432E-002	6,3593388E-002	1,255029531333735E-002	1,000000000000000E+000	2,0068734E-005	41	7,9811582E-007
2	1	0	1	0	3,535699910680705E+000	7,0511825E-002	7,0569843E-002	1,392902047114659E-002	1,000000000000000E+000	2,4707195E-005	41	9,8296880E-007
2	1	0	1	0	3,885599901841488E+000	7,7509567E-002	7,7566236E-002	1,530027794360966E-002	1,000000000000000E+000	2,9828034E-005	41	1,1867850E-006
2	1	0	1	0	4,235499893002270E+000	8,4504627E-002	8,4561393E-002	1,667878043587769E-002	1,000000000000000E+000	3,5430166E-005	41	1,4103809E-006
2	1	0	1	0	4,585299884165579E+000	9,1501027E-002	9,1557153E-002	1,805633070654472E-002	1,000000000000000E+000	4,1512758E-005	41	1,6531862E-006
2	1	0	1	0	4,935099875328888E+000	9,8497413E-002	9,8571822E-002	1,942985561995386E-002	1,000000000000000E+000	4,8076268E-005	41	1,9152362E-006
2	1	0	1	0	5,284899866492196E+000	1,0549381E-001	1,0557523E-001	2,080939565698994E-002	1,000000000000000E+000	5,5121560E-005	41	2,1969568E-006
2	1	0	1	0	5,634699857655505E+000	1,1249021E-001	1,1256208E-001	2,218406274052403E-002	1,000000000000000E+000	6,2648309E-005	41	2,4970843E-006
2	1	0	1	0	5,984499848818814E+000	1,1948661E-001	1,1955468E-001	2,355990470257685E-002	1,000000000000000E+000	7,0655595E-005	41	2,8166967E-006
2	1	0	1	0	6,334299839982123E+000	1,2648301E-001	1,2654938E-001	2,493473672290775E-002	1,000000000000000E+000	7,9144491E-005	41	3,1554755E-006
2	1	0	1	0	6,684099831145431E+000	1,3347940E-001	1,3354899E-001	2,630976421965497E-002	1,000000000000000E+000	8,8114357E-005	41	3,5136425E-006
2	1	0	1	0	7,033899822308740E+000	1,4047581E-001	1,4054346E-001	2,768538262764059E-002	1,000000000000000E+000	9,7564480E-005	41	3,8909993E-006
2	1	0	1	0	7,383799813469523E+000	1,4747354E-001	1,4755517E-001	2,906188855762026E-002	1,000000000000000E+000	1,0749935E-004	41	4,2882320E-006
2	1	0	1	0	7,733699804630305E+000	1,5446860E-001	1,5451869E-001	3,043141685581457E-002	1,000000000000000E+000	1,1791569E-004	41	4,7022227E-006
2	1	0	1	0	8,083499795793614E+000	1,6146500E-001	1,6150680E-001	3,180852522469920E-002	1,000000000000000E+000	1,2880903E-004	41	5,1372931E-006
2	1	0	1	0	8,433299786956923E+000	1,6846141E-001	1,6851173E-001	3,318660000459872E-002	1,000000000000000E+000	1,4018401E-004	41	5,5923315E-006
2	1	0	1	0	8,783099778120231E+000	1,7545778E-001	1,7552340E-001	3,455944426564711E-002	1,000000000000000E+000	1,5204037E-004	41	6,0659913E-006
2	1	0	1	0	9,132899769283540E+000	1,8245418E-001	1,8249775E-001	3,593399339027842E-002	1,000000000000000E+000	1,6437691E-004	41	6,5578729E-006
2	1	0	1	0	9,482699760446849E+000	1,8945061E-001	1,8949668E-001	3,731155639979977E-002	1,000000000000000E+000	1,7719447E-004	41	7,0704159E-006
2	1	0	1	0	9,832499751610158E+000	1,9644700E-001	1,9650646E-001	3,868335746746099E-002	1,000000000000000E+000	1,9049335E-004	41	7,6015294E-006
2	1	0	1	0	1,018229974277347E+001	2,0344338E-001	2,0351879E-001	4,006404781075955E-002	1,000000000000000E+000	2,0427354E-004	41	8,1537864E-006
2	1	0	1	0	1,053209973393678E+001	2,1043979E-001	2,1050970E-001	4,144034494162990E-002	1,000000000000000E+000	2,1853570E-004	41	8,7235949E-006
2	1	0	1	0	1,088199972509756E+001	2,1743755E-001	2,1751428E-001	4,281286255658601E-002	1,000000000000000E+000	2,3328280E-004	41	9,3124090E-006
2	1	0	1	0	1,123189971625834E+001	2,2443257E-001	2,2449827E-001	4,419153179818149E-002	1,000000000000000E+000	2,4851138E-004	41	9,9209228E-006
2	1	0	1	0	1,158169970742165E+001	2,3142897E-001	2,3147154E-001	4,556379252958487E-002	1,000000000000000E+000	2,6421685E-004	41	1,0546722E-005
2	1	0	1	0	1,193149969858496E+001	2,3842537E-001	2,3848069E-001	4,693889107417171E-002	1,000000000000000E+000	2,8040272E-004	41	1,1194019E-005
2	1	0	1	0	1,228129968974827E+001	2,4542178E-001	2,4547815E-001	4,831603381144656E-002	1,000000000000000E+000	2,9707016E-004	41	1,1860530E-005
2	1	0	1	0	1,263109968091158E+001	2,5241819E-001	2,5245714E-001	4,969221329385473E-002	1,000000000000000E+000	3,1421933E-004	41	1,2545154E-005
2	1	0	1	0	1,298089967207488E+001	2,5941458E-001	2,5946990E-001	5,106554296799015E-002	1,000000000000000E+000	3,3184848E-004	41	1,3249971E-005
2	1	0	1	0	1,333069966323819E+001	2,6641098E-001	2,6648480E-001	5,244253592186243E-002	1,000000000000000E+000	3,4995959E-004	41	1,3975138E-005
2	1	0	1	0	1,368049965440150E+001	2,7340737E-001	2,7347529E-001	5,381703289674106E-002	1,000000000000000E+000	3,6855220E-004	41	1,4717629E-005
2	1	0	1	0	1,403029964556481E+001	2,8040376E-001	2,8045785E-001	5,519395941626959E-002	1,000000000000000E+000	3,8762519E-004	41	1,5479580E-005
2	1	0	1	0	1,438019963672559E+001	2,8740153E-001	2,8746924E-001	5,656842624207248E-002	1,000000000000000E+000	4,0718511E-004	41	1,6261682E-005
2	1	0	1	0	1,473009962788638E+001	2,9439658E-001	2,9445365E-001	5,794211714183595E-002	1,000000000000000E+000	4,2722657E-004	41	1,7061267E-005
2	1	0	1	0	1,507989961904968E+001	3,0139294E-001	3,0145049E-001	5,931512445763321E-002	1,000000000000000E+000	4,4774235E-004	41	1,7880573E-005
2	1	0	1	0	1,542969961021299E+001	3,0838937E-001	3,0845049E-001	6,069654225440797E-002	1,000000000000000E+000	4,6873986E-004	41	1,8721877E-005
2	1	0	1	0	1,577949960137630E+001	3,1538576E-001	3,1545922E-001	6,206898532669869E-002	1,000000000000000E+000	4,9021904E-004	41	1,9580233E-005
2	1	0	1	0	1,612929959253961E+001	3,2238215E-001	3,2244822E-001	6,344473349033945E-002	1,000000000000000E+000	5,1217852E-004	41	2,0457641E-005
2	1	0	1	0	1,647909958370292E+001	3,2937855E-001	3,2946417E-001	6,482225910036066E-002	1,000000000000000E+000	5,3461979E-004	41	2,1356611E-005
2	1	0	1	0	1,682889957486623E+001	3,3637497E-001	3,3643383E-001	6,619128077808378E-002	1,000000000000000E+000	5,5754103E-004	41	2,2268987E-005
2	1	0	1	0	1,717869956602954E+001	3,4337136E-001	3,4344593E-001	6,757274971998944E-002	1,000000000000000E+000	5,8094354E-004	41	2,3207585E-005
2	1	0	1	0	1,752849955719284E+001	3,5036772E-001	3,5043275E-001	6,894887927747179E-002	1,000000000000000E+000	6,0482795E-004	41	2,4161945E-005
2	1	0	1	0	1,787839954835363E+001	3,5736549E-001	3,5742494E-001	7,031887683975097E-002	1,000000000000000E+000	6,2919979E-004	41	2,5133721E-005
2	1	0	1	0	1,822829953951441E+001	3,6436054E-001	3,6442325E-001	7,169697951973864E-002	1,000000000000000E+000	6,5405312E-004	41	2,6128046E-005
2	1	0	1	0	1,857809953067772E+001	3,7135696E-001	3,7143645E-001	7,307419136890927E-002	1,000000000000000E+000	6,7938131E-004	41	2,7142418E-005
2	1	0	1	0	1,892789952184103E+001	3,7835336E-001	3,7842160E-001	7,444793611971845E-002	1,000000000000000E+000	7,0518965E-004	41	2,8172708E-005
2	1	0	1	0	1,927769951300434E+001	3,8534975E-001	3,8541079E-001	7,582192218655515E-002	1,000000000000000E+000	7,3147897E-004	41	2,9222587E-005
2	1	0	1	0	1,962749950416764E+001	3,9234614E-001	3,9241952E-001	7,719813203611531E-002	1,000000000000000E+000	7,5824972E-004	41	3,0294053E-005
2	1	0	1	0	1,997729949533095E+001	3,9934251E-001	3,9941081E-001	7,857532255110078E-002	1,000000000000000E+000	7,8550179E-004	41	3,1383832E-005
2	1	0	1	0	2,032709948649426E+001	4,0633893E-001	4,0641934E-001	7,995145889516508E-002	1,000000000000000E+000	8,1323541E-004	41	3,2493819E-005
2	1	0	1	0	2,067689947765757E+001	4,1333532E-001	4,1339344E-001	8,132646036230828E-002	1,000000000000000E+000	8,4145070E-004	41	3,3619825E-005
2	1	0	1	0	2,102669946882088E+001	4,2033172E-001	4,2041558E-001	8,270527644048409E-002	1,000000000000000E+000	8,7014708E-004	41	3,4770586E-005
2	1	0	1	0	2,137659945998166E+001	4,2732948E-001	4,2741805E-001	8,408449517251287E-002	1,000000000000000E+000	8,9933380E-004	41	3,5939232E-005
2	1	0	1	0	2,172649945114244E+001	4,3432453E-001	4,3440628E-001	8,545224549662755E-002	1,000000000000000E+000	9,2900143E-004	41	3,7120994E-005
2	1	0	1	0	2,207629944230575E+001	4,4132096E-001	4,4139540E-001	8,682856563030261E-002	1,000000000000000E+000	9,5914083E-004	41	3,8325728E-005
2	1	0	0	0	2,230179943660914E+001	4,4586873E-001	4,4594398E-001	8,772607892751694E-002	1,000000000000000E+000	9,7882468E-004	41	3,9120918E-005